HEADER
Header Length,87
Export file version,2.0


Export settings:
Normalise,Yes
For TPS,No
Smoothing level,None

Units:
length,[cm]
amperage,[pA]

Project:
Project,PinPoint 3D
Project run number,1
Project run note,

Irradiation unit:
Name,VCU MRIdian
Manufacturer,ViewRay
Model,MRIdian
Source-isocentre distance,90,[cm]

Thales:
Control unit UID,00-3B-00-43-4B-56-50-11-20-37-30-53
Electrometer UID,00-4E-00-36-58-4B-50-0D-20-34-34-41
Water phantom UID,4A-B3-52-04-00-00-00-0A

Field detector:
Serial number,152781
Manufacturer,PTW
Model,Pinpoint 3D
Bias voltage,300,[V]

Reference detector:
Serial number,XMC213192
Manufacturer,Standard Imaging
Model,A28MR Ref
Bias voltage,-300,[V]

Zeroing offsets:
Field detector,-0.844,[pA]
Reference detector,-0.89,[pA]

Profile settings:
Measurement mode,Continuous
Creation time,2023-01-14T19:26:10.7430806-05:00
SSD,85,[cm]
Gantry angle,0,[°]
Field size crossline,24.07,[cm]
Field size inline,24.07,[cm]
Beam quality,6,[MV]
Flattening Filter,FFF
Time to wait prior to sampling,0,[s]

Profile:
Profile type,Crossline
Profile status,Completed successfully
Start X,-14,[cm]
Start Y,0,[cm]
Start Z,-5,[cm]
Stop X,14,[cm]
Stop Y,0,[cm]
Stop Z,-5,[cm]
Couch tilt x,0.03,[°]
Couch tilt y,-0.02,[°]

Region count,1

Region 1 Start,0,[µm]
Region 1 Stop,280000,[µm]
Step size,1000,[µm]
Speed,1050,[µm/s]
Integration time,953,[ms]

Analysis result:
Analysis method,Max value
Calculated centre,0.018157,[cm]
Calculated field width,23.676753,[cm]
Calculated penumbra left,5.094800,[cm]
Calculated penumbra right,5.020001,[cm]
Calculated symmetry,0.799,[%]
Normalisation factor,0.483442,


MEASUREMENT DATA

X [cm],Y [cm],Z [cm],Normalised dose [%],
-13.9511,0.0003,-5.0027,-5.771,
-13.8499,0.0008,-5.0054,-5.978,
-13.7499,0.0009,-5.0056,-6.130,
-13.6498,0.0011,-5.0058,-6.270,
-13.5499,0.0012,-5.0059,-6.453,
-13.4499,0.0014,-5.0061,-6.661,
-13.3498,0.0016,-5.0062,-6.890,
-13.2499,0.0017,-5.0064,-7.120,
-13.1499,0.0019,-5.0066,-7.440,
-13.0498,0.0021,-5.0067,-7.709,
-12.9499,0.0022,-5.0069,-8.146,
-12.8499,0.0024,-5.0071,-8.568,
-12.7498,0.0026,-5.0072,-9.138,
-12.6499,0.0027,-5.0074,-9.929,
-12.5499,0.0029,-5.0075,-10.840,
-12.4498,0.003,-5.0077,-12.215,
-12.3499,0.0032,-5.0079,-14.373,
-12.2499,0.0034,-5.008,-17.988,
-12.1499,0.0035,-5.0082,-23.917,
-12.05,0.0037,-5.0084,-31.943,
-11.9499,0.0039,-5.0085,-40.585,
-11.8498,0.004,-5.0087,-48.379,
-11.7499,0.0042,-5.0088,-53.854,
-11.6499,0.0043,-5.009,-57.534,
-11.5498,0.0045,-5.0092,-60.001,
-11.4499,0.0047,-5.0093,-61.468,
-11.3499,0.0048,-5.0095,-62.586,
-11.2498,0.005,-5.0097,-63.715,
-11.1498,0.0052,-5.0098,-64.546,
-11.0498,0.0053,-5.01,-64.969,
-10.9499,0.0055,-5.0101,-65.559,
-10.8499,0.0056,-5.0103,-65.984,
-10.7498,0.0058,-5.0105,-66.268,
-10.6499,0.006,-5.0106,-66.665,
-10.55,0.0061,-5.0108,-67.186,
-10.4499,0.0063,-5.011,-67.604,
-10.3498,0.0065,-5.0111,-68.084,
-10.2499,0.0066,-5.0113,-68.417,
-10.15,0.0068,-5.0114,-68.769,
-10.0499,0.007,-5.0116,-69.018,
-9.9499,0.0071,-5.0118,-69.504,
-9.8498,0.0073,-5.0119,-69.744,
-9.7499,0.0074,-5.0121,-70.086,
-9.6499,0.0076,-5.0123,-70.795,
-9.5498,0.0078,-5.0124,-71.182,
-9.4499,0.0079,-5.0126,-71.377,
-9.35,0.008,-5.0127,-71.673,
-9.2501,0.008,-5.0127,-72.146,
-9.15,0.0079,-5.0126,-72.392,
-9.0499,0.0079,-5.0126,-73.042,
-8.9499,0.0078,-5.0125,-73.169,
-8.8499,0.0077,-5.0125,-73.851,
-8.7499,0.0076,-5.0124,-73.967,
-8.65,0.0075,-5.0124,-74.366,
-8.55,0.0075,-5.0123,-74.792,
-8.4499,0.0074,-5.0123,-75.288,
-8.3498,0.0073,-5.0122,-75.463,
-8.2498,0.0072,-5.0122,-75.864,
-8.1499,0.0072,-5.0121,-76.250,
-8.05,0.0071,-5.0121,-76.402,
-7.9499,0.007,-5.012,-76.906,
-7.8499,0.0069,-5.012,-77.325,
-7.7499,0.0068,-5.0119,-77.927,
-7.6499,0.0068,-5.0118,-78.224,
-7.55,0.0067,-5.0118,-78.707,
-7.45,0.0066,-5.0117,-78.974,
-7.35,0.0065,-5.0117,-79.100,
-7.2499,0.0065,-5.0116,-79.607,
-7.1498,0.0064,-5.0116,-79.826,
-7.0498,0.0063,-5.0115,-80.433,
-6.9499,0.0062,-5.0115,-80.646,
-6.85,0.0061,-5.0114,-81.086,
-6.7499,0.0061,-5.0114,-81.422,
-6.6499,0.006,-5.0113,-81.789,
-6.5498,0.0059,-5.0113,-82.290,
-6.4499,0.0058,-5.0112,-82.620,
-6.35,0.0058,-5.0112,-82.995,
-6.25,0.0057,-5.0111,-83.445,
-6.1499,0.0056,-5.0111,-83.640,
-6.0499,0.0055,-5.011,-84.297,
-5.9499,0.0054,-5.011,-84.518,
-5.85,0.0054,-5.0109,-84.640,
-5.75,0.0053,-5.0109,-85.107,
-5.65,0.0052,-5.0108,-85.462,
-5.5499,0.0051,-5.0108,-85.941,
-5.4498,0.0051,-5.0107,-86.432,
-5.3498,0.005,-5.0107,-86.787,
-5.2499,0.0049,-5.0106,-87.066,
-5.15,0.0048,-5.0106,-87.354,
-5.0499,0.0047,-5.0105,-87.638,
-4.9499,0.0047,-5.0104,-88.109,
-4.8499,0.0046,-5.0104,-88.387,
-4.7499,0.0045,-5.0103,-88.727,
-4.65,0.0044,-5.0103,-89.194,
-4.5499,0.0044,-5.0102,-89.523,
-4.4498,0.0043,-5.0102,-90.090,
-4.3499,0.0042,-5.0101,-90.294,
-4.25,0.0041,-5.0101,-90.657,
-4.15,0.004,-5.01,-90.913,
-4.0499,0.004,-5.01,-91.307,
-3.9498,0.0039,-5.0099,-91.301,
-3.8499,0.0038,-5.0099,-91.928,
-3.75,0.0037,-5.0098,-92.106,
-3.65,0.0037,-5.0098,-92.259,
-3.5499,0.0036,-5.0097,-92.936,
-3.4499,0.0035,-5.0097,-93.138,
-3.3498,0.0034,-5.0096,-93.663,
-3.2498,0.0033,-5.0096,-93.900,
-3.1499,0.0033,-5.0095,-94.203,
-3.05,0.0032,-5.0095,-94.472,
-2.9499,0.0031,-5.0094,-94.753,
-2.8499,0.003,-5.0094,-95.126,
-2.7498,0.0029,-5.0093,-95.493,
-2.6499,0.0029,-5.0093,-95.630,
-2.55,0.0028,-5.0092,-95.927,
-2.45,0.0027,-5.0092,-96.332,
-2.35,0.0026,-5.0091,-96.231,
-2.2499,0.0026,-5.009,-96.908,
-2.1498,0.0025,-5.009,-97.039,
-2.0499,0.0024,-5.0089,-97.052,
-1.95,0.0023,-5.0089,-97.359,
-1.8499,0.0022,-5.0088,-97.483,
-1.7499,0.0022,-5.0088,-97.603,
-1.6498,0.0021,-5.0087,-97.849,
-1.5499,0.002,-5.0087,-97.968,
-1.45,0.0019,-5.0086,-98.519,
-1.35,0.0019,-5.0086,-98.593,
-1.2499,0.0018,-5.0085,-98.634,
-1.15,0.0017,-5.0085,-99.188,
-1.0499,0.0016,-5.0084,-99.070,
-0.9499,0.0015,-5.0084,-99.452,
-0.85,0.0015,-5.0083,-99.480,
-0.75,0.0014,-5.0083,-99.693,
-0.6499,0.0013,-5.0082,-99.843,
-0.5499,0.0012,-5.0082,-99.733,
-0.4498,0.0012,-5.0081,-100.000,
-0.3499,0.0011,-5.0081,-99.993,
-0.25,0.001,-5.008,-99.866,
-0.15,0.0009,-5.008,-99.883,
-0.0499,0.0008,-5.0079,-99.862,
0.0501,0.0008,-5.0079,-99.685,
0.1501,0.0008,-5.0079,-99.395,
0.2501,0.0009,-5.0078,-99.563,
0.35,0.0009,-5.0078,-99.312,
0.4501,0.0009,-5.0078,-99.310,
0.5501,0.001,-5.0078,-99.375,
0.6501,0.001,-5.0078,-99.056,
0.75,0.001,-5.0078,-99.024,
0.8501,0.0011,-5.0078,-98.925,
0.9502,0.0011,-5.0078,-98.824,
1.0501,0.0011,-5.0078,-98.515,
1.15,0.0012,-5.0078,-98.551,
1.25,0.0012,-5.0077,-98.602,
1.3501,0.0012,-5.0077,-98.274,
1.4501,0.0013,-5.0077,-98.160,
1.55,0.0013,-5.0077,-97.941,
1.6501,0.0014,-5.0077,-97.780,
1.7501,0.0014,-5.0077,-97.524,
1.85,0.0014,-5.0077,-97.384,
1.95,0.0015,-5.0077,-97.056,
2.0501,0.0015,-5.0077,-97.063,
2.1501,0.0015,-5.0077,-97.002,
2.25,0.0016,-5.0077,-96.525,
2.35,0.0016,-5.0076,-96.434,
2.4501,0.0016,-5.0076,-96.103,
2.5501,0.0017,-5.0076,-95.936,
2.65,0.0017,-5.0076,-95.624,
2.7501,0.0017,-5.0076,-95.343,
2.8501,0.0018,-5.0076,-94.944,
2.9501,0.0018,-5.0076,-94.546,
3.05,0.0019,-5.0076,-94.249,
3.1501,0.0019,-5.0076,-94.304,
3.2502,0.0019,-5.0076,-93.846,
3.3501,0.002,-5.0076,-93.506,
3.45,0.002,-5.0075,-93.203,
3.5501,0.002,-5.0075,-92.973,
3.6502,0.0021,-5.0075,-92.600,
3.7501,0.0021,-5.0075,-92.306,
3.85,0.0021,-5.0075,-92.040,
3.9501,0.0022,-5.0075,-91.546,
4.0502,0.0022,-5.0075,-91.360,
4.1501,0.0022,-5.0075,-91.097,
4.25,0.0023,-5.0075,-90.503,
4.3501,0.0023,-5.0075,-90.328,
4.4501,0.0024,-5.0074,-90.006,
4.55,0.0024,-5.0074,-89.799,
4.6501,0.0024,-5.0074,-89.250,
4.7501,0.0025,-5.0074,-88.887,
4.85,0.0025,-5.0074,-88.508,
4.9501,0.0025,-5.0074,-88.386,
5.0502,0.0026,-5.0074,-87.952,
5.1501,0.0026,-5.0074,-87.536,
5.25,0.0026,-5.0074,-87.132,
5.3501,0.0027,-5.0074,-86.775,
5.4502,0.0027,-5.0074,-86.663,
5.5501,0.0027,-5.0073,-86.200,
5.65,0.0028,-5.0073,-85.659,
5.7501,0.0028,-5.0073,-85.430,
5.8502,0.0029,-5.0073,-85.004,
5.9501,0.0029,-5.0073,-84.735,
6.05,0.0029,-5.0073,-84.326,
6.1501,0.003,-5.0073,-83.699,
6.2501,0.003,-5.0073,-83.510,
6.35,0.003,-5.0073,-83.084,
6.45,0.0031,-5.0073,-82.860,
6.5501,0.0031,-5.0073,-82.477,
6.6501,0.0031,-5.0072,-82.005,
6.75,0.0032,-5.0072,-81.877,
6.8501,0.0032,-5.0072,-81.323,
6.9501,0.0032,-5.0072,-81.219,
7.0501,0.0033,-5.0072,-80.520,
7.15,0.0033,-5.0072,-80.329,
7.2501,0.0034,-5.0072,-79.910,
7.3501,0.0034,-5.0072,-79.562,
7.4501,0.0034,-5.0072,-79.158,
7.55,0.0035,-5.0072,-79.009,
7.6501,0.0035,-5.0071,-78.303,
7.7502,0.0035,-5.0071,-78.029,
7.8501,0.0036,-5.0071,-77.691,
7.95,0.0036,-5.0071,-77.153,
8.0501,0.0036,-5.0071,-77.058,
8.1502,0.0037,-5.0071,-76.480,
8.2501,0.0037,-5.0071,-76.203,
8.35,0.0037,-5.0071,-75.722,
8.4501,0.0038,-5.0071,-75.389,
8.5501,0.0038,-5.0071,-75.153,
8.65,0.0039,-5.0071,-74.644,
8.75,0.0039,-5.007,-74.147,
8.8501,0.0039,-5.007,-73.938,
8.9501,0.004,-5.007,-73.572,
9.05,0.004,-5.007,-73.409,
9.1501,0.004,-5.007,-72.850,
9.2501,0.0041,-5.007,-72.502,
9.3502,0.0041,-5.007,-72.046,
9.4502,0.0041,-5.0069,-71.674,
9.5502,0.004,-5.0067,-71.542,
9.6502,0.0039,-5.0066,-71.053,
9.7502,0.0038,-5.0064,-70.570,
9.8502,0.0037,-5.0063,-70.296,
9.9502,0.0036,-5.0061,-69.715,
10.0502,0.0035,-5.006,-69.398,
10.1502,0.0034,-5.0058,-69.177,
10.2502,0.0034,-5.0057,-68.884,
10.3502,0.0033,-5.0055,-68.346,
10.4502,0.0032,-5.0054,-67.903,
10.5502,0.0031,-5.0052,-67.438,
10.6502,0.003,-5.0051,-67.048,
10.7502,0.0029,-5.0049,-66.364,
10.8502,0.0028,-5.0048,-66.060,
10.9502,0.0027,-5.0046,-65.496,
11.0502,0.0026,-5.0045,-65.117,
11.1502,0.0026,-5.0043,-64.368,
11.2502,0.0025,-5.0042,-63.734,
11.3502,0.0024,-5.004,-62.896,
11.4502,0.0023,-5.0039,-61.847,
11.5502,0.0022,-5.0037,-60.401,
11.6502,0.0021,-5.0036,-58.303,
11.7501,0.002,-5.0034,-55.171,
11.8501,0.0019,-5.0033,-50.440,
11.9502,0.0018,-5.0031,-43.590,
12.0503,0.0017,-5.003,-35.298,
12.1503,0.0017,-5.0028,-26.899,
12.2502,0.0016,-5.0027,-19.889,
12.3502,0.0015,-5.0025,-15.040,
12.4502,0.0014,-5.0024,-12.204,
12.5502,0.0013,-5.0022,-10.596,
12.6502,0.0012,-5.0021,-9.569,
12.7502,0.0011,-5.0019,-8.934,
12.8501,0.001,-5.0018,-8.543,
12.9501,0.0009,-5.0016,-8.196,
13.0501,0.0009,-5.0015,-7.919,
13.15,0.0008,-5.0013,-7.706,
13.25,0.0007,-5.0012,-7.411,
13.35,0.0006,-5.001,-7.191,
13.45,0.0005,-5.0009,-6.995,
13.55,0.0004,-5.0007,-6.775,
13.65,0.0003,-5.0006,-6.562,
13.7502,0.0002,-5.0004,-6.413,
13.8503,0.0001,-5.0003,-6.245,
13.9503,0,-5.0001,-6.052,

Checksum:,83C7E28AAEC0D4769ADAC8DB2EABBCAE4E4C920FE8D11A59A5E4CB7C230F608B