HEADER
Header Length,87
Export file version,2.0


Export settings:
Normalise,Yes
For TPS,No
Smoothing level,None

Units:
length,[cm]
amperage,[pA]

Project:
Project,Razor SN 17414
Project run number,2
Project run note,

Irradiation unit:
Name,VCU MRIdian
Manufacturer,ViewRay
Model,MRIdian
Source-isocentre distance,90,[cm]

Thales:
Control unit UID,00-3B-00-43-4B-56-50-11-20-37-30-53
Electrometer UID,00-4E-00-36-58-4B-50-0D-20-34-34-41
Water phantom UID,4A-B3-52-04-00-00-00-0A

Field detector:
Serial number,17414
Manufacturer,IBA
Model,Razor
Bias voltage,300,[V]

Reference detector:
Serial number,XMC213192
Manufacturer,Standard Imaging
Model,A28MR Ref
Bias voltage,-300,[V]

Zeroing offsets:
Field detector,-0.86,[pA]
Reference detector,-0.896,[pA]

Profile settings:
Measurement mode,Continuous
Creation time,2022-12-31T17:40:24.0867521-05:00
SSD,85,[cm]
Gantry angle,0,[°]
Field size crossline,19.92,[cm]
Field size inline,19.92,[cm]
Beam quality,6,[MV]
Flattening Filter,FFF
Time to wait prior to sampling,0,[s]

Profile:
Profile type,Inline
Profile status,Completed successfully
Start X,0,[cm]
Start Y,-11.5,[cm]
Start Z,-5,[cm]
Stop X,0,[cm]
Stop Y,11.5,[cm]
Stop Z,-5,[cm]
Couch tilt x,0.06,[°]
Couch tilt y,0.00,[°]

Region count,1

Region 1 Start,0,[µm]
Region 1 Stop,230000,[µm]
Step size,1000,[µm]
Speed,1050,[µm/s]
Integration time,953,[ms]

Analysis result:
Analysis method,Max value
Calculated centre,0.020512,[cm]
Calculated field width,19.916401,[cm]
Calculated penumbra left,3.282697,[cm]
Calculated penumbra right,3.785897,[cm]
Calculated symmetry,2.790,[%]
Normalisation factor,0.681881,


MEASUREMENT DATA

X [cm],Y [cm],Z [cm],Normalised dose [%],
-0.0003,-11.4499,-5.0043,-6.277,
0.001,-11.3496,-5.0086,-6.478,
0.0012,-11.2496,-5.0085,-6.811,
0.0016,-11.1496,-5.0085,-7.067,
0.0021,-11.0496,-5.0084,-7.383,
0.0028,-10.9496,-5.0083,-7.720,
0.0035,-10.8496,-5.0082,-8.140,
0.004,-10.7496,-5.0081,-8.729,
0.0042,-10.6496,-5.0081,-9.652,
0.0045,-10.5496,-5.008,-11.231,
0.0048,-10.4496,-5.0079,-13.680,
0.005,-10.3496,-5.0078,-17.675,
0.0052,-10.2496,-5.0077,-23.641,
0.0053,-10.1495,-5.0076,-31.633,
0.0054,-10.0495,-5.0076,-40.803,
0.0055,-9.9497,-5.0075,-49.116,
0.0056,-9.85,-5.0074,-56.452,
0.0057,-9.75,-5.0073,-61.247,
0.0057,-9.65,-5.0072,-64.653,
0.0058,-9.55,-5.0071,-66.605,
0.0057,-9.45,-5.0071,-68.188,
0.0057,-9.35,-5.007,-69.180,
0.0056,-9.25,-5.0069,-69.781,
0.0055,-9.15,-5.0068,-70.624,
0.0053,-9.05,-5.0067,-71.039,
0.0051,-8.95,-5.0066,-71.821,
0.005,-8.85,-5.0066,-72.326,
0.005,-8.75,-5.0065,-72.833,
0.0047,-8.65,-5.0064,-73.265,
0.0045,-8.55,-5.0063,-73.714,
0.0044,-8.45,-5.0062,-74.221,
0.0042,-8.35,-5.0062,-74.695,
0.004,-8.25,-5.0061,-75.405,
0.0039,-8.15,-5.006,-75.645,
0.0039,-8.0499,-5.0059,-76.164,
0.0038,-7.9499,-5.0058,-76.632,
0.0037,-7.8499,-5.0057,-76.708,
0.0037,-7.7498,-5.0057,-77.434,
0.0036,-7.6498,-5.0056,-77.922,
0.0035,-7.5498,-5.0055,-78.400,
0.0035,-7.4498,-5.0054,-78.471,
0.0032,-7.3498,-5.0053,-79.146,
0.003,-7.2498,-5.0052,-79.174,
0.0029,-7.1498,-5.0052,-79.532,
0.0029,-7.0498,-5.0051,-79.870,
0.0028,-6.9497,-5.0051,-80.464,
0.0028,-6.8498,-5.0051,-80.933,
0.0028,-6.7499,-5.0051,-81.248,
0.0025,-6.6497,-5.0052,-81.724,
0.0024,-6.5498,-5.0052,-81.865,
0.0024,-6.45,-5.0052,-82.463,
0.0023,-6.3498,-5.0053,-82.921,
0.0023,-6.2496,-5.0053,-83.440,
0.0023,-6.1497,-5.0053,-83.800,
0.0022,-6.0498,-5.0053,-84.124,
0.0022,-5.9496,-5.0054,-84.391,
0.0022,-5.8497,-5.0054,-84.885,
0.0019,-5.7499,-5.0054,-85.281,
0.0018,-5.6497,-5.0054,-85.722,
0.0018,-5.5498,-5.0055,-85.977,
0.0017,-5.4499,-5.0055,-86.579,
0.0019,-5.3497,-5.0055,-86.518,
0.002,-5.2498,-5.0056,-87.195,
0.0019,-5.1499,-5.0056,-87.417,
0.0043,-5.0498,-5.0056,-88.007,
0.0066,-4.9496,-5.0056,-88.251,
0.0062,-4.8497,-5.0057,-88.520,
0.0055,-4.7498,-5.0057,-88.911,
0.0049,-4.6496,-5.0057,-88.960,
0.0044,-4.5497,-5.0057,-89.501,
0.004,-4.4498,-5.0058,-89.888,
0.0039,-4.3497,-5.0058,-90.206,
0.0037,-4.2498,-5.0058,-90.795,
0.0033,-4.1499,-5.0059,-90.820,
0.0031,-4.0497,-5.0059,-91.453,
0.0031,-3.9498,-5.0059,-91.693,
0.0031,-3.8499,-5.0059,-91.818,
0.003,-3.7498,-5.006,-92.251,
0.0028,-3.6496,-5.006,-92.435,
0.0027,-3.5497,-5.006,-92.783,
0.0024,-3.4498,-5.0061,-93.340,
0.0023,-3.3496,-5.0061,-93.456,
0.0022,-3.2497,-5.0061,-93.660,
0.0022,-3.1498,-5.0061,-94.094,
0.0022,-3.0497,-5.0062,-94.434,
0.0021,-2.9498,-5.0062,-94.665,
0.0021,-2.8499,-5.0062,-94.909,
0.0021,-2.7497,-5.0062,-95.062,
0.002,-2.6498,-5.0063,-95.548,
0.002,-2.5499,-5.0063,-95.941,
0.002,-2.4497,-5.0063,-96.034,
0.0019,-2.3498,-5.0064,-96.301,
0.0019,-2.2499,-5.0064,-96.533,
0.0019,-2.1497,-5.0064,-96.791,
0.0018,-2.0498,-5.0064,-96.988,
0.0016,-1.9499,-5.0065,-97.130,
0.0015,-1.8497,-5.0065,-97.297,
0.0014,-1.7498,-5.0065,-97.729,
0.0014,-1.65,-5.0065,-98.071,
0.0014,-1.5498,-5.0066,-98.036,
0.0013,-1.4496,-5.0066,-98.188,
0.0013,-1.3497,-5.0066,-98.352,
0.0013,-1.2498,-5.0067,-98.658,
0.0012,-1.1496,-5.0067,-98.878,
0.0012,-1.0497,-5.0067,-98.963,
0.0012,-0.9499,-5.0067,-99.029,
0.0011,-0.8497,-5.0068,-99.156,
0.0011,-0.7498,-5.0068,-99.361,
0.0011,-0.6499,-5.0068,-99.637,
0.001,-0.5497,-5.0069,-99.721,
0.0012,-0.4498,-5.0069,-99.583,
0.0013,-0.35,-5.0069,-99.819,
0.0012,-0.2498,-5.0069,-99.675,
0.0012,-0.1496,-5.007,-99.827,
0.0012,-0.0497,-5.007,-100.000,
0.0011,0.0502,-5.007,-99.843,
0.0011,0.1501,-5.007,-99.927,
0.0011,0.25,-5.0071,-99.493,
0.001,0.3501,-5.0071,-99.418,
0.001,0.4503,-5.0071,-99.486,
0.001,0.5502,-5.0072,-99.616,
0.0009,0.6501,-5.0072,-99.483,
0.0009,0.7503,-5.0072,-99.244,
0.0009,0.8502,-5.0072,-99.344,
0.0008,0.9501,-5.0073,-99.105,
0.0008,1.0502,-5.0073,-99.083,
0.0008,1.1504,-5.0073,-98.906,
0.0007,1.2503,-5.0073,-98.822,
0.0007,1.3502,-5.0074,-98.647,
0.0007,1.4501,-5.0074,-98.470,
0.0007,1.55,-5.0074,-98.306,
0.0004,1.6501,-5.0075,-98.054,
0.0003,1.7503,-5.0075,-97.719,
0.0003,1.8502,-5.0075,-97.541,
0.0002,1.9501,-5.0075,-97.358,
0.0002,2.0503,-5.0076,-97.222,
0.0002,2.1502,-5.0076,-96.873,
0.0001,2.2501,-5.0076,-96.732,
0.0001,2.3502,-5.0076,-96.154,
0.0001,2.4502,-5.0076,-96.222,
0.0001,2.5502,-5.0076,-95.780,
0.0001,2.6503,-5.0075,-95.615,
0.0001,2.7504,-5.0074,-95.297,
0.0003,2.8504,-5.0073,-94.764,
0.0004,2.9504,-5.0072,-94.457,
0.0004,3.0505,-5.0071,-94.296,
0.0004,3.1505,-5.0071,-94.122,
0.0004,3.2503,-5.007,-93.657,
0.0004,3.35,-5.0069,-93.481,
0.0004,3.45,-5.0068,-93.190,
0.0004,3.55,-5.0067,-92.683,
0.0004,3.6501,-5.0066,-92.372,
0.0004,3.7501,-5.0066,-92.287,
0.0004,3.8501,-5.0065,-91.484,
0.0004,3.9502,-5.0064,-91.421,
0.0002,4.0502,-5.0063,-90.982,
0.0001,4.1502,-5.0062,-90.644,
0.0001,4.2502,-5.0061,-90.170,
0.0001,4.3503,-5.0061,-89.725,
0.0001,4.4503,-5.006,-89.215,
0.0001,4.5504,-5.0059,-88.428,
0.0001,4.6505,-5.0058,-88.365,
0,4.7505,-5.0057,-87.689,
0,4.8503,-5.0056,-87.495,
0,4.95,-5.0055,-87.001,
0,5.05,-5.0055,-86.699,
0,5.15,-5.0054,-86.093,
0,5.25,-5.0053,-85.794,
0,5.3501,-5.0052,-85.147,
0,5.4501,-5.0051,-84.653,
0,5.5501,-5.005,-84.349,
0,5.6502,-5.005,-83.863,
0,5.7502,-5.0049,-83.533,
0,5.8502,-5.0048,-82.943,
0.0002,5.9503,-5.0047,-82.660,
0.0003,6.0503,-5.0046,-82.246,
0.0003,6.1503,-5.0045,-81.593,
0.0003,6.2504,-5.0045,-81.343,
0.0003,6.3504,-5.0044,-80.752,
0.0003,6.4504,-5.0043,-80.181,
0.0003,6.5503,-5.0042,-80.004,
0.0003,6.65,-5.0041,-79.419,
0.0003,6.75,-5.004,-78.948,
0.0003,6.85,-5.004,-78.262,
0.0003,6.9501,-5.0039,-77.972,
0.0003,7.0501,-5.0038,-77.427,
0.0003,7.1502,-5.0037,-77.154,
0.0003,7.2503,-5.0036,-76.552,
0.0003,7.3503,-5.0035,-76.177,
0.0001,7.4503,-5.0035,-75.964,
0,7.5503,-5.0034,-75.273,
0,7.6504,-5.0033,-74.957,
0,7.7504,-5.0032,-74.386,
0,7.8504,-5.0031,-73.907,
0,7.9505,-5.003,-73.490,
0,8.0505,-5.003,-73.103,
0,8.1503,-5.0029,-72.771,
0,8.25,-5.0028,-72.077,
0,8.35,-5.0027,-71.661,
0,8.45,-5.0026,-71.166,
0,8.5501,-5.0025,-70.721,
0,8.6502,-5.0025,-70.402,
0,8.7502,-5.0024,-69.886,
0,8.8502,-5.0023,-69.390,
0,8.9503,-5.0022,-68.974,
0,9.0503,-5.0021,-68.335,
0,9.1503,-5.002,-67.759,
0,9.2504,-5.002,-67.018,
0,9.3504,-5.0019,-66.393,
0,9.4504,-5.0018,-65.450,
0,9.5505,-5.0017,-64.283,
0,9.6505,-5.0016,-62.640,
0,9.7505,-5.0015,-60.338,
0,9.8503,-5.0015,-57.070,
0,9.95,-5.0014,-52.065,
0,10.05,-5.0013,-44.873,
0,10.15,-5.0012,-36.041,
0,10.2501,-5.0011,-26.878,
0,10.3501,-5.001,-18.958,
0,10.4502,-5.001,-12.965,
0,10.5503,-5.0009,-9.030,
0,10.6503,-5.0008,-6.695,
0,10.7503,-5.0007,-5.308,
0,10.8503,-5.0006,-4.435,
0,10.9504,-5.0005,-3.843,
0,11.0504,-5.0004,-3.471,
0,11.1504,-5.0004,-3.166,
0,11.2505,-5.0003,-2.921,
0,11.3505,-5.0002,-2.673,
0,11.4503,-5.0001,-2.260,

Checksum:,2AE471F02088EBCD4AEC5FE7F1498456AB24BEA43BB3A7A9498B815360D1C6E1