HEADER
Header Length,87
Export file version,2.0


Export settings:
Normalise,Yes
For TPS,No
Smoothing level,None

Units:
length,[cm]
amperage,[pA]

Project:
Project,Razor SN 17414
Project run number,2
Project run note,

Irradiation unit:
Name,VCU MRIdian
Manufacturer,ViewRay
Model,MRIdian
Source-isocentre distance,90,[cm]

Thales:
Control unit UID,00-3B-00-43-4B-56-50-11-20-37-30-53
Electrometer UID,00-4E-00-36-58-4B-50-0D-20-34-34-41
Water phantom UID,4A-B3-52-04-00-00-00-0A

Field detector:
Serial number,17414
Manufacturer,IBA
Model,Razor
Bias voltage,300,[V]

Reference detector:
Serial number,XMC213192
Manufacturer,Standard Imaging
Model,A28MR Ref
Bias voltage,-300,[V]

Zeroing offsets:
Field detector,-0.86,[pA]
Reference detector,-0.896,[pA]

Profile settings:
Measurement mode,Continuous
Creation time,2022-12-31T18:20:01.0768575-05:00
SSD,85,[cm]
Gantry angle,0,[°]
Field size crossline,27.2,[cm]
Field size inline,24.07,[cm]
Beam quality,6,[MV]
Flattening Filter,FFF
Time to wait prior to sampling,0,[s]

Profile:
Profile type,Crossline
Profile status,Completed successfully
Start X,-14.5,[cm]
Start Y,0,[cm]
Start Z,-5,[cm]
Stop X,14.5,[cm]
Stop Y,0,[cm]
Stop Z,-5,[cm]
Couch tilt x,0.06,[°]
Couch tilt y,0.00,[°]

Region count,1

Region 1 Start,0,[µm]
Region 1 Stop,290000,[µm]
Step size,1000,[µm]
Speed,1050,[µm/s]
Integration time,953,[ms]

Analysis result:
Analysis method,Max value
Calculated centre,-0.008922,[cm]
Calculated field width,26.735001,[cm]
Calculated penumbra left,6.567651,[cm]
Calculated penumbra right,7.230737,[cm]
Calculated symmetry,0.829,[%]
Normalisation factor,0.674616,


MEASUREMENT DATA

X [cm],Y [cm],Z [cm],Normalised dose [%],
-14.4511,-0.0002,-5.0024,-7.188,
-14.3499,-0.0003,-5.005,-7.828,
-14.2499,-0.0002,-5.0051,-8.400,
-14.1498,0,-5.0053,-9.309,
-14.0499,0.0002,-5.0055,-10.500,
-13.95,0.0003,-5.0056,-12.316,
-13.8499,0.0005,-5.0058,-15.386,
-13.7498,0.0006,-5.006,-20.967,
-13.6499,0.0008,-5.0061,-29.500,
-13.5499,0.001,-5.0063,-38.784,
-13.4498,0.0011,-5.0065,-46.459,
-13.3499,0.0013,-5.0066,-51.280,
-13.2499,0.0015,-5.0068,-54.348,
-13.1498,0.0016,-5.0069,-56.510,
-13.0499,0.0018,-5.0071,-57.806,
-12.9499,0.002,-5.0073,-58.878,
-12.8498,0.0021,-5.0074,-59.625,
-12.7499,0.0023,-5.0076,-60.055,
-12.6499,0.0025,-5.0078,-60.759,
-12.5498,0.0026,-5.0079,-61.054,
-12.4499,0.0028,-5.0081,-61.591,
-12.3499,0.0029,-5.0082,-61.944,
-12.2498,0.0031,-5.0084,-62.274,
-12.1499,0.0033,-5.0086,-62.661,
-12.0499,0.0034,-5.0087,-63.197,
-11.9498,0.0036,-5.0089,-63.443,
-11.8499,0.0038,-5.0091,-63.878,
-11.7499,0.0039,-5.0092,-64.196,
-11.6498,0.0041,-5.0094,-64.757,
-11.5499,0.0043,-5.0096,-65.159,
-11.4499,0.0044,-5.0097,-65.460,
-11.3498,0.0046,-5.0099,-65.915,
-11.2499,0.0048,-5.01,-66.258,
-11.1499,0.0049,-5.0102,-66.238,
-11.0498,0.0051,-5.0104,-66.721,
-10.9499,0.0052,-5.0105,-67.148,
-10.8499,0.0054,-5.0107,-67.422,
-10.7498,0.0056,-5.0109,-67.761,
-10.6499,0.0057,-5.011,-68.109,
-10.5499,0.0059,-5.0112,-68.336,
-10.4498,0.0061,-5.0113,-68.685,
-10.3499,0.0062,-5.0115,-69.200,
-10.2499,0.0064,-5.0117,-69.268,
-10.1498,0.0066,-5.0118,-69.733,
-10.0499,0.0067,-5.012,-69.825,
-9.9499,0.0069,-5.0122,-70.085,
-9.8498,0.0071,-5.0123,-70.673,
-9.7499,0.0072,-5.0125,-71.176,
-9.6499,0.0074,-5.0127,-71.231,
-9.5498,0.0076,-5.0128,-71.620,
-9.4499,0.0077,-5.013,-72.007,
-9.3499,0.0078,-5.0131,-72.501,
-9.2498,0.0079,-5.0132,-72.778,
-9.1498,0.0078,-5.0131,-73.039,
-9.0499,0.0078,-5.0131,-73.296,
-8.95,0.0077,-5.013,-73.753,
-8.8499,0.0076,-5.013,-74.213,
-8.7499,0.0075,-5.0129,-74.229,
-8.6499,0.0075,-5.0129,-74.737,
-8.5499,0.0074,-5.0128,-75.168,
-8.45,0.0073,-5.0128,-75.480,
-8.35,0.0072,-5.0127,-75.883,
-8.2499,0.0071,-5.0127,-76.159,
-8.1498,0.0071,-5.0126,-76.553,
-8.0498,0.007,-5.0126,-76.814,
-7.9499,0.0069,-5.0125,-77.442,
-7.85,0.0068,-5.0125,-77.664,
-7.7499,0.0068,-5.0124,-78.018,
-7.6499,0.0067,-5.0124,-78.212,
-7.5499,0.0066,-5.0123,-78.640,
-7.4498,0.0065,-5.0123,-79.174,
-7.3499,0.0064,-5.0122,-79.567,
-7.25,0.0064,-5.0122,-79.762,
-7.15,0.0063,-5.0121,-80.233,
-7.0499,0.0062,-5.0121,-80.569,
-6.9498,0.0061,-5.012,-80.828,
-6.8498,0.0061,-5.012,-81.387,
-6.7499,0.006,-5.0119,-81.631,
-6.65,0.0059,-5.0119,-82.222,
-6.5499,0.0058,-5.0118,-82.541,
-6.4499,0.0058,-5.0118,-82.752,
-6.3498,0.0057,-5.0117,-83.118,
-6.2498,0.0056,-5.0117,-83.293,
-6.1499,0.0055,-5.0116,-83.797,
-6.05,0.0054,-5.0116,-84.198,
-5.9499,0.0054,-5.0115,-84.638,
-5.8499,0.0053,-5.0115,-84.977,
-5.7498,0.0052,-5.0114,-85.131,
-5.6499,0.0051,-5.0113,-85.496,
-5.55,0.0051,-5.0113,-86.057,
-5.45,0.005,-5.0112,-86.342,
-5.35,0.0049,-5.0112,-86.389,
-5.25,0.0048,-5.0111,-87.307,
-5.1499,0.0047,-5.0111,-87.684,
-5.0498,0.0047,-5.011,-87.960,
-4.9499,0.0046,-5.011,-88.295,
-4.85,0.0045,-5.0109,-88.654,
-4.7499,0.0044,-5.0109,-89.015,
-4.6498,0.0044,-5.0108,-89.374,
-4.5499,0.0043,-5.0108,-89.900,
-4.45,0.0042,-5.0107,-90.061,
-4.3499,0.0041,-5.0107,-90.375,
-4.2499,0.0041,-5.0106,-90.506,
-4.1498,0.004,-5.0106,-90.908,
-4.0499,0.0039,-5.0105,-91.403,
-3.95,0.0038,-5.0105,-91.662,
-3.85,0.0037,-5.0104,-92.141,
-3.7499,0.0037,-5.0104,-92.353,
-3.65,0.0036,-5.0103,-92.616,
-3.5499,0.0035,-5.0103,-93.122,
-3.4499,0.0034,-5.0102,-93.223,
-3.35,0.0034,-5.0102,-93.725,
-3.2499,0.0033,-5.0101,-93.971,
-3.1499,0.0032,-5.0101,-94.441,
-3.0499,0.0031,-5.01,-94.576,
-2.9499,0.003,-5.01,-94.794,
-2.85,0.003,-5.0099,-95.286,
-2.75,0.0029,-5.0099,-95.256,
-2.65,0.0028,-5.0098,-95.564,
-2.5499,0.0027,-5.0098,-95.967,
-2.4498,0.0027,-5.0097,-96.121,
-2.3498,0.0026,-5.0097,-96.523,
-2.2499,0.0025,-5.0096,-96.788,
-2.15,0.0024,-5.0096,-97.163,
-2.0499,0.0024,-5.0095,-97.366,
-1.9499,0.0023,-5.0095,-97.489,
-1.8498,0.0022,-5.0094,-97.637,
-1.7499,0.0021,-5.0094,-98.031,
-1.65,0.002,-5.0093,-98.065,
-1.55,0.002,-5.0093,-98.306,
-1.45,0.0019,-5.0092,-98.706,
-1.3499,0.0018,-5.0092,-98.556,
-1.2498,0.0017,-5.0091,-99.038,
-1.1498,0.0017,-5.0091,-99.076,
-1.0499,0.0016,-5.009,-99.405,
-0.95,0.0015,-5.0089,-99.287,
-0.8499,0.0014,-5.0089,-99.393,
-0.7499,0.0013,-5.0088,-99.655,
-0.6498,0.0013,-5.0088,-99.856,
-0.5499,0.0012,-5.0087,-100.000,
-0.45,0.0011,-5.0087,-99.790,
-0.35,0.001,-5.0086,-99.957,
-0.2499,0.001,-5.0086,-99.813,
-0.1499,0.0009,-5.0085,-99.959,
-0.0498,0.0008,-5.0085,-99.754,
0.0502,0.0007,-5.0084,-99.834,
0.1501,0.0007,-5.0084,-99.336,
0.25,0.0008,-5.0084,-99.280,
0.3501,0.0008,-5.0084,-99.517,
0.4502,0.0008,-5.0084,-99.379,
0.5501,0.0009,-5.0084,-99.125,
0.65,0.0009,-5.0084,-99.180,
0.7501,0.001,-5.0084,-99.160,
0.8501,0.001,-5.0084,-99.108,
0.9501,0.001,-5.0083,-98.842,
1.05,0.0011,-5.0083,-98.912,
1.1501,0.0011,-5.0083,-98.478,
1.2501,0.0011,-5.0083,-98.549,
1.35,0.0012,-5.0083,-98.395,
1.45,0.0012,-5.0083,-98.164,
1.5501,0.0013,-5.0083,-98.191,
1.6501,0.0013,-5.0083,-97.843,
1.75,0.0013,-5.0083,-97.469,
1.8501,0.0014,-5.0083,-97.619,
1.9502,0.0014,-5.0083,-97.099,
2.0501,0.0014,-5.0083,-96.842,
2.15,0.0015,-5.0082,-96.744,
2.2501,0.0015,-5.0082,-96.549,
2.3502,0.0016,-5.0082,-96.281,
2.4501,0.0016,-5.0082,-96.217,
2.55,0.0016,-5.0082,-95.659,
2.6501,0.0017,-5.0082,-95.621,
2.7502,0.0017,-5.0082,-95.467,
2.8501,0.0017,-5.0082,-94.971,
2.95,0.0018,-5.0082,-94.508,
3.0501,0.0018,-5.0082,-94.284,
3.1501,0.0019,-5.0082,-94.092,
3.25,0.0019,-5.0082,-93.840,
3.35,0.0019,-5.0081,-93.355,
3.4501,0.002,-5.0081,-93.142,
3.5501,0.002,-5.0081,-92.856,
3.65,0.002,-5.0081,-92.300,
3.7501,0.0021,-5.0081,-92.203,
3.8501,0.0021,-5.0081,-91.859,
3.9501,0.0022,-5.0081,-91.735,
4.05,0.0022,-5.0081,-91.411,
4.1501,0.0022,-5.0081,-90.818,
4.2501,0.0023,-5.0081,-90.629,
4.3501,0.0023,-5.0081,-90.328,
4.45,0.0023,-5.008,-89.793,
4.5501,0.0024,-5.008,-89.341,
4.6502,0.0024,-5.008,-89.145,
4.7502,0.0025,-5.008,-88.687,
4.8501,0.0025,-5.008,-88.886,
4.9501,0.0025,-5.008,-88.021,
5.05,0.0026,-5.008,-87.755,
5.15,0.0026,-5.008,-87.402,
5.2501,0.0026,-5.008,-87.174,
5.3501,0.0027,-5.008,-86.620,
5.45,0.0027,-5.008,-86.399,
5.5501,0.0028,-5.008,-86.082,
5.65,0.0028,-5.0079,-85.647,
5.7499,0.0028,-5.0079,-85.282,
5.85,0.0029,-5.0079,-85.085,
5.9501,0.0029,-5.0079,-84.612,
6.0501,0.0029,-5.0079,-84.325,
6.1501,0.003,-5.0079,-83.910,
6.25,0.003,-5.0079,-83.442,
6.3501,0.0031,-5.0079,-83.064,
6.4502,0.0031,-5.0079,-82.640,
6.5501,0.0031,-5.0079,-82.669,
6.65,0.0032,-5.0079,-82.195,
6.7501,0.0032,-5.0079,-81.464,
6.8502,0.0032,-5.0078,-81.218,
6.9501,0.0033,-5.0078,-81.097,
7.05,0.0033,-5.0078,-80.777,
7.1501,0.0034,-5.0078,-80.216,
7.2501,0.0034,-5.0078,-79.948,
7.35,0.0034,-5.0078,-79.504,
7.45,0.0035,-5.0078,-78.771,
7.5501,0.0035,-5.0078,-78.920,
7.6501,0.0035,-5.0078,-78.192,
7.75,0.0036,-5.0078,-77.925,
7.8501,0.0036,-5.0078,-77.594,
7.9502,0.0037,-5.0078,-77.276,
8.0501,0.0037,-5.0077,-76.840,
8.15,0.0037,-5.0077,-76.493,
8.2501,0.0038,-5.0077,-76.101,
8.3501,0.0038,-5.0077,-76.017,
8.4501,0.0039,-5.0077,-75.280,
8.55,0.0039,-5.0077,-74.963,
8.6501,0.0039,-5.0077,-74.631,
8.7501,0.004,-5.0077,-74.390,
8.85,0.004,-5.0077,-74.072,
8.95,0.004,-5.0077,-73.758,
9.0501,0.0041,-5.0077,-73.248,
9.1501,0.0041,-5.0076,-72.964,
9.25,0.0042,-5.0076,-72.825,
9.3501,0.0042,-5.0076,-72.300,
9.4501,0.0042,-5.0076,-71.931,
9.5501,0.0041,-5.0074,-71.752,
9.6501,0.004,-5.0073,-71.380,
9.7501,0.004,-5.0071,-71.018,
9.8501,0.0039,-5.007,-70.696,
9.9501,0.0038,-5.0068,-70.286,
10.0502,0.0037,-5.0067,-70.051,
10.1502,0.0036,-5.0065,-69.733,
10.2502,0.0035,-5.0064,-69.323,
10.3502,0.0034,-5.0062,-68.825,
10.45,0.0033,-5.0061,-68.615,
10.5501,0.0033,-5.0059,-68.437,
10.6502,0.0032,-5.0058,-67.955,
10.7502,0.0031,-5.0056,-67.559,
10.8501,0.003,-5.0055,-67.241,
10.95,0.0029,-5.0053,-66.865,
11.05,0.0028,-5.0052,-66.425,
11.15,0.0027,-5.005,-66.309,
11.25,0.0026,-5.0049,-65.925,
11.35,0.0025,-5.0047,-65.769,
11.4501,0.0025,-5.0046,-65.283,
11.5501,0.0024,-5.0044,-64.830,
11.6501,0.0023,-5.0043,-64.508,
11.7501,0.0022,-5.0041,-64.155,
11.8501,0.0021,-5.004,-64.001,
11.9501,0.002,-5.0038,-63.451,
12.0501,0.0019,-5.0037,-63.196,
12.1501,0.0018,-5.0035,-62.567,
12.2501,0.0018,-5.0034,-62.314,
12.3502,0.0017,-5.0033,-61.710,
12.4502,0.0016,-5.0031,-61.349,
12.5502,0.0015,-5.003,-60.808,
12.6502,0.0014,-5.0028,-60.320,
12.7502,0.0013,-5.0027,-59.609,
12.8501,0.0012,-5.0025,-58.694,
12.95,0.0011,-5.0024,-58.056,
13.05,0.001,-5.0022,-56.920,
13.15,0.001,-5.0021,-55.369,
13.25,0.0009,-5.0019,-53.403,
13.35,0.0008,-5.0018,-50.392,
13.4501,0.0007,-5.0016,-45.814,
13.55,0.0006,-5.0015,-39.268,
13.65,0.0005,-5.0013,-30.720,
13.75,0.0004,-5.0012,-22.534,
13.8501,0.0003,-5.001,-16.124,
13.9501,0.0002,-5.0009,-12.208,
14.0501,0.0002,-5.0007,-9.886,
14.1501,0.0001,-5.0006,-8.597,
14.25,0,-5.0004,-7.901,
14.35,-0.0001,-5.0003,-7.320,
14.45,-0.0002,-5.0001,-6.978,

Checksum:,4CCBDF21051C3BEA651BE789D77EB5A9E93E7D6DBE00D2938FAEB5EEC9D1C127