HEADER
Header Length,87
Export file version,2.0


Export settings:
Normalise,Yes
For TPS,No
Smoothing level,None

Units:
length,[cm]
amperage,[pA]

Project:
Project,Razor SN 17414
Project run number,2
Project run note,

Irradiation unit:
Name,VCU MRIdian
Manufacturer,ViewRay
Model,MRIdian
Source-isocentre distance,90,[cm]

Thales:
Control unit UID,00-3B-00-43-4B-56-50-11-20-37-30-53
Electrometer UID,00-4E-00-36-58-4B-50-0D-20-34-34-41
Water phantom UID,4A-B3-52-04-00-00-00-0A

Field detector:
Serial number,17414
Manufacturer,IBA
Model,Razor
Bias voltage,300,[V]

Reference detector:
Serial number,XMC213192
Manufacturer,Standard Imaging
Model,A28MR Ref
Bias voltage,-300,[V]

Zeroing offsets:
Field detector,-0.86,[pA]
Reference detector,-0.896,[pA]

Profile settings:
Measurement mode,Continuous
Creation time,2022-12-31T17:58:03.5091585-05:00
SSD,85,[cm]
Gantry angle,0,[°]
Field size crossline,24.07,[cm]
Field size inline,24.07,[cm]
Beam quality,6,[MV]
Flattening Filter,FFF
Time to wait prior to sampling,0,[s]

Profile:
Profile type,Crossline
Profile status,Completed successfully
Start X,-13.5,[cm]
Start Y,0,[cm]
Start Z,-5,[cm]
Stop X,13.5,[cm]
Stop Y,0,[cm]
Stop Z,-5,[cm]
Couch tilt x,0.06,[°]
Couch tilt y,0.00,[°]

Region count,1

Region 1 Start,0,[µm]
Region 1 Stop,270000,[µm]
Step size,1000,[µm]
Speed,1050,[µm/s]
Integration time,953,[ms]

Analysis result:
Analysis method,Max value
Calculated centre,0.003773,[cm]
Calculated field width,23.718767,[cm]
Calculated penumbra left,5.065934,[cm]
Calculated penumbra right,5.147191,[cm]
Calculated symmetry,0.848,[%]
Normalisation factor,0.675915,


MEASUREMENT DATA

X [cm],Y [cm],Z [cm],Normalised dose [%],
-13.4512,0.0003,-5.0026,-5.696,
-13.3499,0.0007,-5.0052,-5.948,
-13.2499,0.0009,-5.0053,-6.216,
-13.1498,0.001,-5.0055,-6.523,
-13.0499,0.0012,-5.0057,-6.804,
-12.9499,0.0014,-5.0058,-7.197,
-12.8498,0.0015,-5.006,-7.643,
-12.7499,0.0017,-5.0062,-8.275,
-12.6499,0.0019,-5.0063,-8.970,
-12.5498,0.002,-5.0065,-9.979,
-12.4499,0.0022,-5.0066,-11.336,
-12.3499,0.0023,-5.0068,-13.429,
-12.2498,0.0025,-5.007,-17.360,
-12.1499,0.0027,-5.0071,-23.917,
-12.0499,0.0028,-5.0073,-33.355,
-11.9498,0.003,-5.0075,-43.061,
-11.8499,0.0032,-5.0076,-50.421,
-11.7499,0.0033,-5.0078,-55.310,
-11.6498,0.0035,-5.008,-58.617,
-11.5499,0.0037,-5.0081,-60.649,
-11.4499,0.0038,-5.0083,-62.143,
-11.3498,0.004,-5.0085,-63.301,
-11.2499,0.0042,-5.0086,-63.914,
-11.1499,0.0043,-5.0088,-64.692,
-11.0498,0.0045,-5.0089,-65.067,
-10.9499,0.0047,-5.0091,-65.515,
-10.8499,0.0048,-5.0093,-66.262,
-10.7498,0.005,-5.0094,-66.670,
-10.6499,0.0051,-5.0096,-67.066,
-10.5499,0.0053,-5.0098,-67.309,
-10.4498,0.0055,-5.0099,-67.617,
-10.3499,0.0056,-5.0101,-68.344,
-10.2499,0.0058,-5.0103,-68.565,
-10.1498,0.006,-5.0104,-68.865,
-10.0499,0.0061,-5.0106,-69.316,
-9.9499,0.0063,-5.0108,-69.502,
-9.8498,0.0065,-5.0109,-69.778,
-9.7499,0.0066,-5.0111,-70.254,
-9.65,0.0068,-5.0112,-70.521,
-9.55,0.007,-5.0114,-71.170,
-9.4499,0.0071,-5.0116,-71.444,
-9.3499,0.0072,-5.0117,-71.878,
-9.2498,0.0073,-5.0118,-72.279,
-9.1498,0.0072,-5.0117,-72.630,
-9.0499,0.0072,-5.0117,-72.841,
-8.95,0.0071,-5.0116,-73.239,
-8.8499,0.007,-5.0116,-73.790,
-8.7499,0.0069,-5.0115,-73.963,
-8.6499,0.0069,-5.0115,-74.202,
-8.5499,0.0068,-5.0114,-74.611,
-8.45,0.0067,-5.0114,-75.092,
-8.35,0.0066,-5.0113,-75.308,
-8.2499,0.0065,-5.0113,-75.825,
-8.1498,0.0065,-5.0112,-76.150,
-8.0498,0.0064,-5.0112,-76.603,
-7.9499,0.0063,-5.0111,-76.827,
-7.85,0.0062,-5.0111,-77.400,
-7.7499,0.0062,-5.011,-77.617,
-7.6499,0.0061,-5.011,-78.163,
-7.5499,0.006,-5.0109,-78.564,
-7.4498,0.0059,-5.0108,-78.905,
-7.3499,0.0058,-5.0108,-79.301,
-7.25,0.0058,-5.0107,-79.650,
-7.15,0.0057,-5.0107,-79.980,
-7.0499,0.0056,-5.0106,-80.291,
-6.9498,0.0055,-5.0106,-80.783,
-6.8498,0.0055,-5.0105,-81.110,
-6.7499,0.0054,-5.0105,-81.472,
-6.65,0.0053,-5.0104,-81.856,
-6.5499,0.0052,-5.0104,-82.157,
-6.4499,0.0052,-5.0103,-82.392,
-6.3498,0.0051,-5.0103,-83.133,
-6.2498,0.005,-5.0102,-83.413,
-6.1499,0.0049,-5.0102,-83.663,
-6.05,0.0048,-5.0101,-83.867,
-5.9499,0.0048,-5.0101,-84.223,
-5.8499,0.0047,-5.01,-84.798,
-5.75,0.0046,-5.01,-85.131,
-5.6501,0.0045,-5.0099,-85.370,
-5.55,0.0045,-5.0099,-85.851,
-5.45,0.0044,-5.0098,-86.229,
-5.35,0.0043,-5.0098,-86.584,
-5.2499,0.0042,-5.0097,-87.205,
-5.1498,0.0041,-5.0096,-87.450,
-5.0498,0.0041,-5.0096,-87.803,
-4.9499,0.004,-5.0095,-87.958,
-4.85,0.0039,-5.0095,-88.437,
-4.7499,0.0038,-5.0094,-88.663,
-4.6498,0.0038,-5.0094,-89.122,
-4.5499,0.0037,-5.0093,-89.238,
-4.45,0.0036,-5.0093,-89.892,
-4.3499,0.0035,-5.0092,-90.434,
-4.2499,0.0035,-5.0092,-90.509,
-4.1498,0.0034,-5.0091,-90.897,
-4.0499,0.0033,-5.0091,-91.258,
-3.95,0.0032,-5.009,-91.915,
-3.85,0.0031,-5.009,-91.733,
-3.7499,0.0031,-5.0089,-92.069,
-3.6498,0.003,-5.0089,-92.595,
-3.5498,0.0029,-5.0088,-93.016,
-3.4498,0.0028,-5.0088,-93.072,
-3.3498,0.0028,-5.0087,-93.517,
-3.2499,0.0027,-5.0087,-93.615,
-3.1499,0.0026,-5.0086,-93.973,
-3.0499,0.0025,-5.0086,-94.745,
-2.9499,0.0024,-5.0085,-94.684,
-2.85,0.0024,-5.0085,-95.180,
-2.75,0.0023,-5.0084,-95.385,
-2.65,0.0022,-5.0083,-95.613,
-2.5499,0.0021,-5.0083,-95.913,
-2.4498,0.0021,-5.0082,-96.104,
-2.3498,0.002,-5.0082,-96.579,
-2.2499,0.0019,-5.0081,-96.703,
-2.15,0.0018,-5.0081,-96.797,
-2.0499,0.0018,-5.008,-97.346,
-1.9499,0.0017,-5.008,-97.391,
-1.8499,0.0016,-5.0079,-97.589,
-1.7499,0.0015,-5.0079,-97.499,
-1.65,0.0014,-5.0078,-98.195,
-1.55,0.0014,-5.0078,-98.088,
-1.45,0.0013,-5.0077,-98.449,
-1.3499,0.0012,-5.0077,-98.653,
-1.2498,0.0011,-5.0076,-98.584,
-1.1498,0.0011,-5.0076,-98.778,
-1.0499,0.001,-5.0075,-99.015,
-0.95,0.0009,-5.0075,-99.202,
-0.8499,0.0008,-5.0074,-99.449,
-0.7499,0.0007,-5.0074,-99.283,
-0.6499,0.0007,-5.0073,-99.852,
-0.5499,0.0006,-5.0073,-99.646,
-0.45,0.0005,-5.0072,-99.795,
-0.35,0.0004,-5.0071,-99.949,
-0.25,0.0004,-5.0071,-99.854,
-0.1499,0.0003,-5.007,-99.848,
-0.0498,0.0002,-5.007,-100.000,
0.0502,0.0001,-5.0069,-99.676,
0.1502,0.0001,-5.0069,-99.464,
0.2501,0.0002,-5.0069,-99.449,
0.3501,0.0002,-5.0069,-99.378,
0.4502,0.0002,-5.0069,-99.255,
0.5501,0.0003,-5.0069,-98.994,
0.65,0.0003,-5.0069,-98.998,
0.7501,0.0004,-5.0069,-99.071,
0.8501,0.0004,-5.0069,-98.917,
0.9501,0.0004,-5.0068,-98.822,
1.05,0.0005,-5.0068,-98.513,
1.1501,0.0005,-5.0068,-98.386,
1.2501,0.0005,-5.0068,-98.286,
1.35,0.0006,-5.0068,-98.171,
1.45,0.0006,-5.0068,-98.011,
1.5501,0.0007,-5.0068,-97.788,
1.6502,0.0007,-5.0068,-97.726,
1.7502,0.0007,-5.0068,-97.512,
1.8501,0.0008,-5.0068,-97.132,
1.9502,0.0008,-5.0068,-97.119,
2.0501,0.0008,-5.0068,-96.751,
2.15,0.0009,-5.0067,-96.208,
2.2501,0.0009,-5.0067,-96.184,
2.3502,0.001,-5.0067,-96.322,
2.4501,0.001,-5.0067,-95.985,
2.55,0.001,-5.0067,-95.877,
2.6501,0.0011,-5.0067,-95.389,
2.7502,0.0011,-5.0067,-94.961,
2.8501,0.0011,-5.0067,-94.436,
2.95,0.0012,-5.0067,-94.709,
3.0501,0.0012,-5.0067,-94.163,
3.1501,0.0013,-5.0067,-93.865,
3.25,0.0013,-5.0067,-93.678,
3.35,0.0013,-5.0066,-93.174,
3.4501,0.0014,-5.0066,-93.008,
3.5501,0.0014,-5.0066,-92.559,
3.65,0.0014,-5.0066,-92.235,
3.7501,0.0015,-5.0066,-91.797,
3.8501,0.0015,-5.0066,-91.558,
3.9501,0.0016,-5.0066,-91.188,
4.05,0.0016,-5.0066,-90.972,
4.1501,0.0016,-5.0066,-90.947,
4.2501,0.0017,-5.0066,-90.490,
4.3501,0.0017,-5.0066,-90.106,
4.45,0.0017,-5.0065,-89.619,
4.5501,0.0018,-5.0065,-89.220,
4.6502,0.0018,-5.0065,-88.955,
4.7502,0.0019,-5.0065,-88.664,
4.8501,0.0019,-5.0065,-88.184,
4.9501,0.0019,-5.0065,-87.788,
5.05,0.002,-5.0065,-87.762,
5.15,0.002,-5.0065,-87.113,
5.2501,0.002,-5.0065,-86.785,
5.3501,0.0021,-5.0065,-86.309,
5.45,0.0021,-5.0065,-85.979,
5.5501,0.0022,-5.0065,-85.753,
5.6501,0.0022,-5.0064,-85.469,
5.7501,0.0022,-5.0064,-85.205,
5.85,0.0023,-5.0064,-84.413,
5.9501,0.0023,-5.0064,-84.307,
6.0501,0.0023,-5.0064,-83.732,
6.1501,0.0024,-5.0064,-83.293,
6.25,0.0024,-5.0064,-83.049,
6.3501,0.0025,-5.0064,-82.765,
6.4502,0.0025,-5.0064,-82.546,
6.5501,0.0025,-5.0064,-81.997,
6.65,0.0026,-5.0064,-81.505,
6.7501,0.0026,-5.0064,-81.251,
6.8502,0.0026,-5.0063,-80.764,
6.9501,0.0027,-5.0063,-80.488,
7.05,0.0027,-5.0063,-80.162,
7.1501,0.0028,-5.0063,-79.615,
7.2501,0.0028,-5.0063,-79.345,
7.35,0.0028,-5.0063,-78.683,
7.45,0.0029,-5.0063,-78.702,
7.5501,0.0029,-5.0063,-78.342,
7.6501,0.0029,-5.0063,-77.851,
7.75,0.003,-5.0063,-77.544,
7.8501,0.003,-5.0063,-77.180,
7.9502,0.0031,-5.0062,-76.812,
8.0501,0.0031,-5.0062,-76.437,
8.15,0.0031,-5.0062,-76.131,
8.2501,0.0032,-5.0062,-75.651,
8.3501,0.0032,-5.0062,-75.231,
8.4501,0.0033,-5.0062,-74.906,
8.55,0.0033,-5.0062,-74.477,
8.6501,0.0033,-5.0062,-73.902,
8.7502,0.0034,-5.0062,-73.660,
8.8501,0.0034,-5.0062,-73.185,
8.95,0.0034,-5.0062,-73.046,
9.0501,0.0035,-5.0062,-72.604,
9.1501,0.0035,-5.0061,-72.172,
9.25,0.0036,-5.0061,-71.779,
9.35,0.0036,-5.0061,-71.518,
9.45,0.0036,-5.0061,-71.313,
9.5501,0.0035,-5.0059,-70.898,
9.6501,0.0034,-5.0058,-70.527,
9.7501,0.0034,-5.0056,-70.140,
9.8501,0.0033,-5.0055,-69.787,
9.9501,0.0032,-5.0053,-69.191,
10.0502,0.0031,-5.0052,-68.889,
10.1502,0.003,-5.005,-68.404,
10.2502,0.0029,-5.0049,-68.194,
10.3502,0.0028,-5.0047,-67.541,
10.4502,0.0027,-5.0046,-67.304,
10.5502,0.0027,-5.0044,-66.869,
10.6502,0.0026,-5.0043,-66.667,
10.7502,0.0025,-5.0041,-66.114,
10.8501,0.0024,-5.004,-65.789,
10.95,0.0023,-5.0038,-65.122,
11.05,0.0022,-5.0037,-64.578,
11.15,0.0021,-5.0035,-64.061,
11.25,0.002,-5.0034,-63.331,
11.35,0.0019,-5.0032,-62.654,
11.45,0.0019,-5.0031,-61.535,
11.5501,0.0018,-5.0029,-60.069,
11.6501,0.0017,-5.0028,-58.286,
11.7501,0.0016,-5.0026,-55.284,
11.8501,0.0015,-5.0025,-50.874,
11.9501,0.0014,-5.0023,-44.176,
12.0501,0.0013,-5.0022,-35.427,
12.1501,0.0012,-5.002,-25.766,
12.2501,0.0011,-5.0019,-18.258,
12.3502,0.0011,-5.0018,-13.467,
12.4502,0.001,-5.0016,-10.652,
12.5502,0.0009,-5.0015,-9.195,
12.6502,0.0008,-5.0013,-8.241,
12.7502,0.0007,-5.0012,-7.704,
12.8501,0.0006,-5.001,-7.239,
12.95,0.0005,-5.0009,-6.931,
13.05,0.0004,-5.0007,-6.655,
13.15,0.0004,-5.0006,-6.402,
13.25,0.0003,-5.0004,-6.101,
13.35,0.0002,-5.0003,-5.919,
13.4501,0.0001,-5.0001,-5.728,

Checksum:,829A797E3CE5A6F058962F7D33AA6C9A5D41F7D3C048DC1A997AEAA3CCAEE847