HEADER
Header Length,87
Export file version,2.0


Export settings:
Normalise,Yes
For TPS,No
Smoothing level,None

Units:
length,[cm]
amperage,[pA]

Project:
Project,Pinpoint 3D MR Safe
Project run number,2
Project run note,

Irradiation unit:
Name,VCU MRIdian
Manufacturer,ViewRay
Model,MRIdian
Source-isocentre distance,90,[cm]

Thales:
Control unit UID,00-3B-00-43-4B-56-50-11-20-37-30-53
Electrometer UID,00-4E-00-36-58-4B-50-0D-20-34-34-41
Water phantom UID,4A-B3-52-04-00-00-00-0A

Field detector:
Serial number,200613
Manufacturer,PTW
Model,Pinpoint 3D MR Safe
Bias voltage,300,[V]

Reference detector:
Serial number,XMC213192
Manufacturer,Standard Imaging
Model,A28MR Ref
Bias voltage,-300,[V]

Zeroing offsets:
Field detector,-0.83,[pA]
Reference detector,-0.908,[pA]

Profile settings:
Measurement mode,Continuous
Creation time,2023-01-08T19:13:14.9313997-05:00
SSD,85,[cm]
Gantry angle,0,[°]
Field size crossline,19.92,[cm]
Field size inline,19.92,[cm]
Beam quality,6,[MV]
Flattening Filter,FFF
Time to wait prior to sampling,0,[s]

Profile:
Profile type,Crossline
Profile status,Completed successfully
Start X,-11.5,[cm]
Start Y,0,[cm]
Start Z,-5,[cm]
Stop X,11.5,[cm]
Stop Y,0,[cm]
Stop Z,-5,[cm]
Couch tilt x,0.06,[°]
Couch tilt y,0.00,[°]

Region count,1

Region 1 Start,0,[µm]
Region 1 Stop,230000,[µm]
Step size,1000,[µm]
Speed,1050,[µm/s]
Integration time,953,[ms]

Analysis result:
Analysis method,Max value
Calculated centre,0.026511,[cm]
Calculated field width,19.642740,[cm]
Calculated penumbra left,3.094055,[cm]
Calculated penumbra right,3.144024,[cm]
Calculated symmetry,0.988,[%]
Normalisation factor,0.479058,


MEASUREMENT DATA

X [cm],Y [cm],Z [cm],Normalised dose [%],
-11.4509,0.0009,-5.0028,-6.102,
-11.3499,0.0022,-5.0058,-6.405,
-11.2498,0.003,-5.0059,-6.602,
-11.1499,0.0032,-5.0061,-6.913,
-11.0499,0.0033,-5.0063,-7.238,
-10.9499,0.0035,-5.0064,-7.607,
-10.8499,0.0036,-5.0066,-8.018,
-10.7498,0.0038,-5.0068,-8.585,
-10.6499,0.004,-5.0069,-9.196,
-10.5499,0.0041,-5.0071,-10.168,
-10.4498,0.0043,-5.0072,-11.229,
-10.3499,0.0045,-5.0074,-12.864,
-10.2498,0.0046,-5.0076,-15.598,
-10.1497,0.0048,-5.0077,-20.136,
-10.0498,0.0049,-5.0079,-27.167,
-9.9499,0.0051,-5.0081,-36.280,
-9.8498,0.0053,-5.0082,-45.634,
-9.7499,0.0054,-5.0084,-53.573,
-9.6499,0.0056,-5.0085,-59.271,
-9.5498,0.0058,-5.0087,-63.003,
-9.4499,0.0059,-5.0089,-65.653,
-9.3499,0.006,-5.009,-67.281,
-9.2499,0.006,-5.009,-68.571,
-9.15,0.0059,-5.0089,-69.501,
-9.0499,0.0059,-5.0089,-70.239,
-8.9499,0.0058,-5.0088,-70.792,
-8.8499,0.0057,-5.0088,-74.129,
-8.7499,0.0056,-5.0087,-73.181,
-8.65,0.0055,-5.0087,-73.012,
-8.55,0.0055,-5.0086,-73.438,
-8.4499,0.0054,-5.0086,-74.014,
-8.3499,0.0053,-5.0085,-74.252,
-8.2498,0.0052,-5.0085,-75.159,
-8.1499,0.0052,-5.0084,-75.332,
-8.05,0.0051,-5.0084,-75.847,
-7.95,0.005,-5.0083,-76.071,
-7.8499,0.0049,-5.0082,-76.633,
-7.7498,0.0048,-5.0082,-77.292,
-7.6498,0.0048,-5.0081,-77.642,
-7.5499,0.0047,-5.0081,-77.950,
-7.45,0.0046,-5.008,-78.658,
-7.3499,0.0045,-5.008,-79.005,
-7.2499,0.0045,-5.0079,-79.131,
-7.1499,0.0044,-5.0079,-79.651,
-7.0499,0.0043,-5.0078,-80.033,
-6.95,0.0042,-5.0078,-80.339,
-6.85,0.0041,-5.0077,-80.956,
-6.75,0.0041,-5.0077,-81.205,
-6.6499,0.004,-5.0076,-81.693,
-6.5498,0.0039,-5.0076,-82.002,
-6.4499,0.0038,-5.0075,-82.470,
-6.35,0.0038,-5.0075,-82.892,
-6.2499,0.0037,-5.0074,-83.305,
-6.1499,0.0036,-5.0074,-83.646,
-6.0499,0.0035,-5.0073,-84.003,
-5.9499,0.0034,-5.0073,-84.439,
-5.85,0.0034,-5.0072,-84.937,
-5.75,0.0033,-5.0071,-85.319,
-5.6499,0.0032,-5.0071,-85.519,
-5.5499,0.0031,-5.007,-86.021,
-5.4498,0.0031,-5.007,-86.346,
-5.3499,0.003,-5.0069,-86.798,
-5.25,0.0029,-5.0069,-87.128,
-5.15,0.0028,-5.0068,-87.376,
-5.0499,0.0027,-5.0068,-87.667,
-4.9499,0.0027,-5.0067,-88.270,
-4.8498,0.0026,-5.0067,-88.674,
-4.7499,0.0025,-5.0066,-88.971,
-4.6499,0.0024,-5.0066,-89.223,
-4.5498,0.0024,-5.0065,-89.627,
-4.4498,0.0023,-5.0065,-90.049,
-4.3499,0.0022,-5.0064,-90.354,
-4.25,0.0021,-5.0064,-90.668,
-4.1499,0.002,-5.0063,-91.048,
-4.0499,0.002,-5.0063,-91.245,
-3.9499,0.0019,-5.0062,-91.689,
-3.8499,0.0018,-5.0062,-92.281,
-3.75,0.0017,-5.0061,-92.373,
-3.65,0.0016,-5.0061,-92.638,
-3.5499,0.0016,-5.006,-93.178,
-3.4498,0.0015,-5.0059,-93.487,
-3.3498,0.0014,-5.0059,-94.025,
-3.2499,0.0013,-5.0058,-94.054,
-3.15,0.0013,-5.0058,-94.363,
-3.05,0.0012,-5.0057,-94.784,
-2.9499,0.0011,-5.0057,-95.200,
-2.8499,0.001,-5.0056,-95.411,
-2.7498,0.0009,-5.0056,-95.376,
-2.6499,0.0009,-5.0055,-95.954,
-2.55,0.0008,-5.0055,-96.077,
-2.4499,0.0007,-5.0054,-96.311,
-2.3499,0.0006,-5.0054,-96.364,
-2.2499,0.0006,-5.0053,-96.910,
-2.1499,0.0005,-5.0053,-97.035,
-2.05,0.0004,-5.0052,-97.509,
-1.95,0.0003,-5.0052,-97.541,
-1.85,0.0002,-5.0051,-97.777,
-1.7499,0.0002,-5.0051,-98.223,
-1.6498,0.0001,-5.005,-98.157,
-1.5498,0,-5.005,-98.383,
-1.4498,-0.0001,-5.0049,-98.573,
-1.3499,-0.0001,-5.0049,-98.928,
-1.2499,-0.0002,-5.0048,-99.109,
-1.1499,-0.0003,-5.0047,-99.078,
-1.0499,-0.0004,-5.0047,-99.424,
-0.95,-0.0005,-5.0046,-99.352,
-0.85,-0.0005,-5.0046,-99.603,
-0.75,-0.0006,-5.0045,-99.947,
-0.6499,-0.0007,-5.0045,-99.930,
-0.5498,-0.0008,-5.0044,-99.784,
-0.4499,-0.0008,-5.0044,-99.908,
-0.35,-0.0009,-5.0043,-99.994,
-0.25,-0.001,-5.0043,-99.974,
-0.1499,-0.0011,-5.0042,-100.000,
-0.0499,-0.0012,-5.0042,-99.937,
0.0501,-0.0012,-5.0041,-99.756,
0.1501,-0.0012,-5.0041,-99.679,
0.25,-0.0011,-5.0041,-99.402,
0.35,-0.0011,-5.0041,-99.673,
0.4501,-0.0011,-5.0041,-99.442,
0.55,-0.001,-5.0041,-99.347,
0.6499,-0.001,-5.0041,-99.268,
0.7501,-0.001,-5.0041,-99.243,
0.8502,-0.0009,-5.004,-99.034,
0.9501,-0.0009,-5.004,-99.079,
1.05,-0.0009,-5.004,-98.789,
1.1501,-0.0008,-5.004,-98.723,
1.2502,-0.0008,-5.004,-98.298,
1.3501,-0.0007,-5.004,-97.963,
1.45,-0.0007,-5.004,-98.293,
1.5501,-0.0007,-5.004,-97.946,
1.6501,-0.0006,-5.004,-97.948,
1.7501,-0.0006,-5.004,-97.683,
1.85,-0.0006,-5.0039,-97.239,
1.9501,-0.0005,-5.0039,-97.119,
2.0501,-0.0005,-5.0039,-97.025,
2.15,-0.0005,-5.0039,-97.052,
2.25,-0.0004,-5.0039,-96.358,
2.3501,-0.0004,-5.0039,-96.300,
2.4501,-0.0004,-5.0039,-96.137,
2.55,-0.0003,-5.0039,-96.068,
2.65,-0.0003,-5.0039,-95.684,
2.7501,-0.0003,-5.0039,-95.508,
2.8501,-0.0002,-5.0038,-94.934,
2.95,-0.0002,-5.0038,-94.594,
3.0501,-0.0001,-5.0038,-94.664,
3.1501,-0.0001,-5.0038,-94.114,
3.2501,-0.0001,-5.0038,-93.910,
3.35,0,-5.0038,-93.526,
3.4501,0,-5.0038,-93.175,
3.5502,0,-5.0038,-92.757,
3.6501,0.0001,-5.0038,-92.411,
3.75,0.0001,-5.0038,-92.114,
3.8501,0.0001,-5.0037,-91.679,
3.9502,0.0002,-5.0037,-91.506,
4.0501,0.0002,-5.0037,-90.911,
4.15,0.0002,-5.0037,-90.705,
4.2501,0.0003,-5.0037,-90.322,
4.3501,0.0003,-5.0037,-90.021,
4.45,0.0004,-5.0037,-89.806,
4.55,0.0004,-5.0037,-89.374,
4.6501,0.0004,-5.0037,-88.790,
4.75,0.0005,-5.0037,-88.747,
4.8501,0.0005,-5.0036,-88.259,
4.9501,0.0005,-5.0036,-88.058,
5.0501,0.0006,-5.0036,-87.634,
5.15,0.0006,-5.0036,-87.098,
5.2501,0.0006,-5.0036,-86.753,
5.3502,0.0007,-5.0036,-86.491,
5.4501,0.0007,-5.0036,-86.052,
5.55,0.0007,-5.0036,-85.694,
5.6501,0.0008,-5.0036,-85.278,
5.7502,0.0008,-5.0036,-84.735,
5.8501,0.0009,-5.0035,-84.377,
5.95,0.0009,-5.0035,-84.017,
6.0501,0.0009,-5.0035,-83.601,
6.1502,0.001,-5.0035,-83.233,
6.2501,0.001,-5.0035,-82.957,
6.35,0.001,-5.0035,-82.430,
6.4501,0.0011,-5.0035,-82.283,
6.5501,0.0011,-5.0035,-81.812,
6.65,0.0011,-5.0035,-81.519,
6.75,0.0012,-5.0034,-80.741,
6.8501,0.0012,-5.0034,-80.789,
6.9501,0.0012,-5.0034,-80.016,
7.05,0.0013,-5.0034,-80.029,
7.1501,0.0013,-5.0034,-79.314,
7.2501,0.0014,-5.0034,-79.046,
7.3501,0.0014,-5.0034,-78.722,
7.45,0.0014,-5.0034,-78.230,
7.5501,0.0015,-5.0034,-77.859,
7.6502,0.0015,-5.0034,-77.296,
7.7501,0.0015,-5.0033,-77.113,
7.85,0.0016,-5.0033,-76.496,
7.9501,0.0016,-5.0033,-76.086,
8.0502,0.0016,-5.0033,-75.691,
8.1501,0.0017,-5.0033,-75.054,
8.25,0.0017,-5.0033,-74.524,
8.3501,0.0017,-5.0033,-74.293,
8.4502,0.0018,-5.0033,-73.827,
8.5501,0.0018,-5.0033,-73.214,
8.65,0.0019,-5.0033,-72.801,
8.7501,0.0019,-5.0032,-72.313,
8.8501,0.0019,-5.0032,-71.537,
8.95,0.002,-5.0032,-71.090,
9.05,0.002,-5.0032,-70.446,
9.1501,0.002,-5.0032,-69.774,
9.2501,0.0021,-5.0032,-68.900,
9.3501,0.0021,-5.0032,-67.685,
9.4502,0.0021,-5.0031,-66.079,
9.5502,0.002,-5.0029,-64.209,
9.6502,0.0019,-5.0028,-61.253,
9.7503,0.0018,-5.0026,-56.464,
9.8502,0.0017,-5.0025,-49.846,
9.9502,0.0016,-5.0023,-41.123,
10.0502,0.0015,-5.0022,-31.521,
10.1502,0.0015,-5.002,-23.014,
10.2502,0.0014,-5.0019,-16.727,
10.3502,0.0013,-5.0017,-12.944,
10.4502,0.0012,-5.0016,-10.848,
10.5502,0.0011,-5.0014,-9.649,
10.6502,0.001,-5.0013,-8.922,
10.7502,0.0009,-5.0011,-8.340,
10.8501,0.0008,-5.001,-7.981,
10.9501,0.0007,-5.0008,-7.666,
11.0501,0.0006,-5.0007,-7.341,
11.1502,0.0006,-5.0005,-7.123,
11.2501,0.0005,-5.0004,-6.832,
11.3502,0.0004,-5.0002,-6.620,
11.4503,0.0003,-5.0001,-6.410,

Checksum:,7295B6D622A22936C3150F7C356DF09B50AE6BEEE4A7BCF51CC7B14012FA3F7C