HEADER
Header Length,87
Export file version,2.0


Export settings:
Normalise,Yes
For TPS,No
Smoothing level,None

Units:
length,[cm]
amperage,[pA]

Project:
Project,Micro Diamond SN 124596
Project run number,12
Project run note,

Irradiation unit:
Name,VCU MRIdian
Manufacturer,ViewRay
Model,MRIdian
Source-isocentre distance,90,[cm]

Thales:
Control unit UID,00-3B-00-43-4B-56-50-11-20-37-30-53
Electrometer UID,00-4E-00-36-58-4B-50-0D-20-34-34-41
Water phantom UID,4A-B3-52-04-00-00-00-0A

Field detector:
Serial number,124596
Manufacturer,PTW
Model,Micro Diamond
Bias voltage,0,[V]

Reference detector:
Serial number,XMC213192
Manufacturer,Standard Imaging
Model,A28MR Ref
Bias voltage,-300,[V]

Zeroing offsets:
Field detector,-0.855,[pA]
Reference detector,-0.894,[pA]

Profile settings:
Measurement mode,Continuous
Creation time,2023-01-02T17:18:08.2462933-05:00
SSD,85,[cm]
Gantry angle,0,[°]
Field size crossline,27.2,[cm]
Field size inline,24.07,[cm]
Beam quality,6,[MV]
Flattening Filter,FFF
Time to wait prior to sampling,0,[s]

Profile:
Profile type,Crossline
Profile status,Completed successfully
Start X,-14.5,[cm]
Start Y,0,[cm]
Start Z,-5,[cm]
Stop X,14.5,[cm]
Stop Y,0,[cm]
Stop Z,-5,[cm]
Couch tilt x,0.06,[°]
Couch tilt y,0.01,[°]

Region count,1

Region 1 Start,0,[µm]
Region 1 Stop,290000,[µm]
Step size,1000,[µm]
Speed,1050,[µm/s]
Integration time,953,[ms]

Analysis result:
Analysis method,Max value
Calculated centre,-0.020243,[cm]
Calculated field width,26.756984,[cm]
Calculated penumbra left,6.583288,[cm]
Calculated penumbra right,7.289033,[cm]
Calculated symmetry,0.930,[%]
Normalisation factor,0.180838,


MEASUREMENT DATA

X [cm],Y [cm],Z [cm],Normalised dose [%],
-14.4514,-0.0018,-5.0007,7.857,
-14.3498,-0.0033,-5.0015,8.369,
-14.2498,-0.0038,-5.0016,8.815,
-14.1498,-0.0037,-5.0018,9.513,
-14.0498,-0.0036,-5.002,10.498,
-13.9499,-0.0036,-5.0022,11.882,
-13.85,-0.0035,-5.0024,14.677,
-13.75,-0.0034,-5.0026,20.310,
-13.65,-0.0033,-5.0028,29.535,
-13.5499,-0.0032,-5.0029,39.857,
-13.4499,-0.0032,-5.0031,47.548,
-13.3499,-0.0031,-5.0033,52.340,
-13.25,-0.003,-5.0035,55.068,
-13.15,-0.0029,-5.0037,56.993,
-13.0499,-0.0028,-5.0039,58.108,
-12.9499,-0.0027,-5.0041,58.995,
-12.8499,-0.0027,-5.0042,59.622,
-12.7499,-0.0026,-5.0044,60.202,
-12.6498,-0.0025,-5.0046,60.648,
-12.5498,-0.0024,-5.0048,61.187,
-12.4499,-0.0023,-5.005,61.371,
-12.3499,-0.0023,-5.0052,61.890,
-12.2498,-0.0022,-5.0054,62.271,
-12.1498,-0.0021,-5.0055,62.750,
-12.0498,-0.002,-5.0057,63.057,
-11.9498,-0.0019,-5.0059,63.656,
-11.8499,-0.0019,-5.0061,63.849,
-11.75,-0.0018,-5.0063,64.367,
-11.65,-0.0017,-5.0065,64.642,
-11.55,-0.0016,-5.0067,65.207,
-11.4498,-0.0015,-5.0068,65.165,
-11.3499,-0.0015,-5.007,65.948,
-11.25,-0.0014,-5.0072,65.959,
-11.15,-0.0013,-5.0074,66.575,
-11.05,-0.0012,-5.0076,66.608,
-10.95,-0.0011,-5.0078,67.203,
-10.8499,-0.0011,-5.008,67.396,
-10.7499,-0.001,-5.0081,67.633,
-10.6499,-0.0009,-5.0083,67.943,
-10.5499,-0.0008,-5.0085,68.580,
-10.4499,-0.0007,-5.0087,68.655,
-10.3499,-0.0007,-5.0089,69.143,
-10.2499,-0.0006,-5.0091,69.434,
-10.1499,-0.0005,-5.0093,69.582,
-10.0499,-0.0004,-5.0094,70.048,
-9.9498,-0.0003,-5.0096,70.484,
-9.8498,-0.0003,-5.0098,70.473,
-9.7498,-0.0002,-5.01,70.993,
-9.6498,-0.0001,-5.0102,71.226,
-9.5498,0,-5.0104,71.674,
-9.4498,0.0001,-5.0106,71.859,
-9.3498,0.0001,-5.0107,72.460,
-9.2499,0.0002,-5.0108,72.413,
-9.1499,0.0002,-5.0108,72.952,
-9.0498,0.0002,-5.0108,73.345,
-8.9499,0.0002,-5.0107,73.792,
-8.8498,0.0002,-5.0106,73.925,
-8.7499,0.0002,-5.0106,74.461,
-8.6499,0.0002,-5.0105,74.782,
-8.5499,0.0001,-5.0104,75.035,
-8.4498,0.0001,-5.0103,75.186,
-8.3498,0.0001,-5.0103,75.661,
-8.2499,0.0001,-5.0102,75.917,
-8.1499,0.0001,-5.0101,76.438,
-8.0499,0.0001,-5.0101,76.857,
-7.9499,0.0001,-5.01,77.262,
-7.8498,0,-5.0099,77.538,
-7.7499,0,-5.0099,78.010,
-7.6499,0,-5.0098,78.524,
-7.5498,0,-5.0097,78.847,
-7.4499,0,-5.0097,79.042,
-7.3499,0,-5.0096,79.424,
-7.2499,0,-5.0095,79.704,
-7.1499,0,-5.0094,80.085,
-7.0498,-0.0001,-5.0094,80.486,
-6.9499,-0.0001,-5.0093,80.838,
-6.8499,-0.0001,-5.0092,81.220,
-6.7498,-0.0001,-5.0092,81.583,
-6.6499,-0.0001,-5.0091,82.144,
-6.55,-0.0001,-5.009,82.419,
-6.4499,-0.0001,-5.009,82.466,
-6.3499,-0.0002,-5.0089,83.036,
-6.2499,-0.0002,-5.0088,82.988,
-6.1498,-0.0002,-5.0088,83.778,
-6.0498,-0.0002,-5.0087,84.279,
-5.9499,-0.0002,-5.0086,84.599,
-5.8499,-0.0002,-5.0085,85.008,
-5.7498,-0.0002,-5.0085,85.411,
-5.6499,-0.0002,-5.0084,85.734,
-5.5498,-0.0003,-5.0083,85.820,
-5.4499,-0.0003,-5.0083,86.321,
-5.3499,-0.0003,-5.0082,86.449,
-5.2498,-0.0003,-5.0081,87.139,
-5.1499,-0.0003,-5.0081,87.390,
-5.0499,-0.0003,-5.008,87.645,
-4.9499,-0.0003,-5.0079,88.251,
-4.8499,-0.0004,-5.0078,88.381,
-4.7498,-0.0004,-5.0078,88.732,
-4.6499,-0.0004,-5.0077,89.258,
-4.55,-0.0004,-5.0076,89.446,
-4.45,-0.0004,-5.0076,89.966,
-4.35,-0.0004,-5.0075,90.463,
-4.2499,-0.0004,-5.0074,90.898,
-4.1499,-0.0004,-5.0074,90.851,
-4.0498,-0.0005,-5.0073,91.085,
-3.9498,-0.0005,-5.0072,91.388,
-3.8499,-0.0005,-5.0072,91.958,
-3.7499,-0.0005,-5.0071,92.110,
-3.6498,-0.0005,-5.007,92.636,
-3.5499,-0.0005,-5.0069,92.942,
-3.4499,-0.0005,-5.0069,93.055,
-3.3498,-0.0006,-5.0068,93.534,
-3.2499,-0.0006,-5.0067,94.003,
-3.1498,-0.0006,-5.0067,94.342,
-3.0499,-0.0006,-5.0066,94.365,
-2.9499,-0.0006,-5.0065,94.612,
-2.8498,-0.0006,-5.0065,94.962,
-2.7499,-0.0006,-5.0064,95.359,
-2.6499,-0.0007,-5.0063,96.093,
-2.5499,-0.0007,-5.0063,95.729,
-2.4499,-0.0007,-5.0062,96.184,
-2.3498,-0.0007,-5.0061,96.147,
-2.2499,-0.0007,-5.006,96.370,
-2.1499,-0.0007,-5.006,96.787,
-2.0498,-0.0007,-5.0059,97.027,
-1.9498,-0.0007,-5.0058,97.478,
-1.8498,-0.0008,-5.0058,97.530,
-1.7498,-0.0008,-5.0057,97.963,
-1.6498,-0.0008,-5.0056,97.717,
-1.5499,-0.0008,-5.0056,98.069,
-1.4499,-0.0008,-5.0055,98.321,
-1.3498,-0.0008,-5.0054,98.560,
-1.2499,-0.0008,-5.0054,98.514,
-1.1499,-0.0009,-5.0053,98.930,
-1.0499,-0.0009,-5.0052,99.141,
-0.9499,-0.0009,-5.0051,99.006,
-0.8498,-0.0009,-5.0051,99.374,
-0.7499,-0.0009,-5.005,99.404,
-0.6499,-0.0009,-5.0049,99.748,
-0.5498,-0.0009,-5.0049,99.696,
-0.4499,-0.0009,-5.0048,100.000,
-0.3499,-0.001,-5.0047,99.896,
-0.2499,-0.001,-5.0047,99.844,
-0.1499,-0.001,-5.0046,99.869,
-0.0498,-0.001,-5.0045,99.632,
0.0501,-0.001,-5.0044,99.618,
0.1501,-0.001,-5.0044,99.548,
0.2501,-0.001,-5.0044,99.124,
0.3501,-0.001,-5.0044,99.244,
0.4501,-0.001,-5.0044,98.950,
0.5501,-0.001,-5.0044,99.213,
0.6501,-0.0009,-5.0044,98.921,
0.7501,-0.0009,-5.0044,98.905,
0.8501,-0.0009,-5.0044,98.879,
0.9501,-0.0009,-5.0044,98.971,
1.0501,-0.0009,-5.0044,98.536,
1.1501,-0.0009,-5.0044,98.505,
1.2501,-0.0008,-5.0044,98.566,
1.3501,-0.0008,-5.0044,98.478,
1.45,-0.0008,-5.0044,98.063,
1.5501,-0.0008,-5.0044,97.698,
1.65,-0.0008,-5.0044,97.922,
1.7501,-0.0007,-5.0044,97.466,
1.85,-0.0007,-5.0044,97.596,
1.9501,-0.0007,-5.0044,97.230,
2.0502,-0.0007,-5.0044,96.646,
2.1501,-0.0007,-5.0044,96.969,
2.2502,-0.0007,-5.0044,96.551,
2.3501,-0.0006,-5.0044,96.462,
2.4502,-0.0006,-5.0044,96.305,
2.5501,-0.0006,-5.0044,96.085,
2.6502,-0.0006,-5.0044,95.818,
2.7501,-0.0006,-5.0044,95.640,
2.8502,-0.0006,-5.0044,94.648,
2.9501,-0.0005,-5.0044,94.525,
3.0502,-0.0005,-5.0044,94.187,
3.1501,-0.0005,-5.0044,94.168,
3.2502,-0.0005,-5.0044,93.817,
3.3501,-0.0005,-5.0044,93.187,
3.4502,-0.0005,-5.0044,93.065,
3.5501,-0.0004,-5.0044,92.917,
3.6502,-0.0004,-5.0044,92.459,
3.7501,-0.0004,-5.0044,92.214,
3.8502,-0.0004,-5.0045,92.130,
3.9501,-0.0004,-5.0045,91.757,
4.0502,-0.0003,-5.0045,91.225,
4.1501,-0.0003,-5.0045,90.705,
4.2501,-0.0003,-5.0045,90.887,
4.35,-0.0003,-5.0045,90.343,
4.4501,-0.0003,-5.0045,89.931,
4.55,-0.0003,-5.0045,89.687,
4.6501,-0.0002,-5.0045,89.278,
4.7501,-0.0002,-5.0045,88.864,
4.8502,-0.0002,-5.0045,88.379,
4.9501,-0.0002,-5.0045,88.298,
5.0502,-0.0002,-5.0045,87.700,
5.1501,-0.0002,-5.0045,87.645,
5.2502,-0.0001,-5.0045,87.404,
5.3501,-0.0001,-5.0045,86.857,
5.4502,-0.0001,-5.0045,86.425,
5.5501,-0.0001,-5.0045,86.183,
5.6502,-0.0001,-5.0045,85.470,
5.7501,0,-5.0045,85.317,
5.8502,0,-5.0045,85.038,
5.9501,0,-5.0045,84.883,
6.0502,0,-5.0045,84.142,
6.1501,0,-5.0045,84.048,
6.2502,0,-5.0045,83.645,
6.3501,0.0001,-5.0045,83.130,
6.4501,0.0001,-5.0045,82.803,
6.5501,0.0001,-5.0045,82.486,
6.6501,0.0001,-5.0045,82.028,
6.75,0.0001,-5.0045,81.545,
6.8501,0.0001,-5.0045,81.636,
6.95,0.0002,-5.0045,81.260,
7.0501,0.0002,-5.0045,80.909,
7.15,0.0002,-5.0045,80.508,
7.2501,0.0002,-5.0045,80.203,
7.35,0.0002,-5.0045,79.682,
7.4501,0.0002,-5.0045,79.383,
7.55,0.0003,-5.0045,78.980,
7.6501,0.0003,-5.0045,78.812,
7.75,0.0003,-5.0045,78.091,
7.8501,0.0003,-5.0045,77.800,
7.95,0.0003,-5.0045,77.260,
8.0501,0.0004,-5.0045,77.127,
8.15,0.0004,-5.0045,76.877,
8.2501,0.0004,-5.0045,76.425,
8.35,0.0004,-5.0045,75.942,
8.4501,0.0004,-5.0045,75.380,
8.55,0.0004,-5.0045,75.253,
8.6501,0.0005,-5.0045,74.972,
8.75,0.0005,-5.0045,74.713,
8.85,0.0005,-5.0045,74.184,
8.95,0.0005,-5.0045,73.724,
9.0501,0.0005,-5.0045,73.608,
9.1501,0.0005,-5.0046,72.794,
9.2501,0.0006,-5.0046,72.864,
9.3501,0.0006,-5.0046,72.561,
9.45,0.0006,-5.0046,72.157,
9.5502,0.0006,-5.0045,71.964,
9.6502,0.0006,-5.0044,71.503,
9.7502,0.0006,-5.0044,71.168,
9.8502,0.0005,-5.0043,70.401,
9.9501,0.0005,-5.0042,70.536,
10.05,0.0005,-5.0041,70.052,
10.1501,0.0005,-5.004,69.714,
10.25,0.0005,-5.0039,69.519,
10.3501,0.0005,-5.0038,68.985,
10.45,0.0004,-5.0037,68.732,
10.5501,0.0004,-5.0037,68.248,
10.65,0.0004,-5.0036,68.001,
10.7502,0.0004,-5.0035,67.625,
10.8502,0.0004,-5.0034,67.376,
10.9501,0.0003,-5.0033,67.002,
11.0502,0.0003,-5.0032,66.457,
11.1501,0.0003,-5.0031,66.327,
11.2502,0.0003,-5.003,66.056,
11.3501,0.0003,-5.0029,65.877,
11.4501,0.0002,-5.0029,65.181,
11.5501,0.0002,-5.0028,65.124,
11.6501,0.0002,-5.0027,64.742,
11.7501,0.0002,-5.0026,64.328,
11.8501,0.0002,-5.0025,63.931,
11.9501,0.0002,-5.0024,63.446,
12.0501,0.0001,-5.0023,63.233,
12.1501,0.0001,-5.0022,62.689,
12.2502,0.0001,-5.0022,62.423,
12.3501,0.0001,-5.0021,61.763,
12.4502,0.0001,-5.002,61.285,
12.5501,0,-5.0019,61.040,
12.6501,0,-5.0018,60.324,
12.7501,0,-5.0017,59.814,
12.8501,0,-5.0016,59.208,
12.9501,0,-5.0015,58.408,
13.0501,-0.0001,-5.0015,57.084,
13.1501,-0.0001,-5.0014,55.531,
13.2501,-0.0001,-5.0013,53.628,
13.35,-0.0001,-5.0012,50.432,
13.4501,-0.0001,-5.0011,45.192,
13.55,-0.0001,-5.001,37.137,
13.6501,-0.0002,-5.0009,27.653,
13.75,-0.0002,-5.0008,19.477,
13.8501,-0.0002,-5.0008,14.188,
13.95,-0.0002,-5.0007,11.222,
14.0501,-0.0002,-5.0006,9.696,
14.1501,-0.0003,-5.0005,8.807,
14.2502,-0.0003,-5.0004,8.227,
14.3502,-0.0003,-5.0003,7.886,
14.4502,-0.0003,-5.0002,7.509,

Checksum:,71EA57584F123BA3238BCC62D73ADA9CEBE4E4A48F69D09C215E9E386DE46ACE