HEADER
Header Length,87
Export file version,2.0


Export settings:
Normalise,Yes
For TPS,No
Smoothing level,None

Units:
length,[cm]
amperage,[pA]

Project:
Project,A28MR Field Detector SN XMC213190
Project run number,13
Project run note,

Irradiation unit:
Name,VCU MRIdian
Manufacturer,ViewRay
Model,MRIdian
Source-isocentre distance,90,[cm]

Thales:
Control unit UID,00-3B-00-43-4B-56-50-11-20-37-30-53
Electrometer UID,00-4E-00-36-58-4B-50-0D-20-34-34-41
Water phantom UID,4A-B3-52-04-00-00-00-0A

Field detector:
Serial number,XMC213190
Manufacturer,Standard Imaging
Model,A28MR Field
Bias voltage,-300,[V]

Reference detector:
Serial number,XMC213192
Manufacturer,Standard Imaging
Model,A28MR Ref
Bias voltage,-300,[V]

Zeroing offsets:
Field detector,-0.841,[pA]
Reference detector,-0.876,[pA]

Profile settings:
Measurement mode,Continuous
Creation time,2022-12-18T18:06:49.2977059-05:00
SSD,85,[cm]
Gantry angle,0,[°]
Field size crossline,14.94,[cm]
Field size inline,14.94,[cm]
Beam quality,6,[MV]
Flattening Filter,FFF
Time to wait prior to sampling,0,[s]

Profile:
Profile type,Crossline
Profile status,Completed successfully
Start X,-8.5,[cm]
Start Y,0,[cm]
Start Z,-5,[cm]
Stop X,8.5,[cm]
Stop Y,0,[cm]
Stop Z,-5,[cm]
Couch tilt x,0.08,[°]
Couch tilt y,0.01,[°]

Region count,1

Region 1 Start,0,[µm]
Region 1 Stop,170000,[µm]
Step size,1000,[µm]
Speed,1050,[µm/s]
Integration time,953,[ms]

Analysis result:
Analysis method,Max value
Calculated centre,0.017475,[cm]
Calculated field width,14.685417,[cm]
Calculated penumbra left,1.473458,[cm]
Calculated penumbra right,1.454306,[cm]
Calculated symmetry,0.961,[%]
Normalisation factor,0.017706,


MEASUREMENT DATA

X [cm],Y [cm],Z [cm],Normalised dose [%],
-8.4518,0.0014,-5.0026,6.771,
-8.3499,0.0031,-5.0053,7.360,
-8.25,0.0036,-5.0052,7.947,
-8.15,0.0036,-5.0052,8.665,
-8.0499,0.0035,-5.0051,9.709,
-7.9499,0.0034,-5.0051,11.113,
-7.85,0.0033,-5.005,13.429,
-7.75,0.0033,-5.005,17.421,
-7.6499,0.0032,-5.0049,23.437,
-7.5498,0.0031,-5.0049,31.016,
-7.4499,0.003,-5.0048,39.309,
-7.35,0.0029,-5.0048,48.024,
-7.25,0.0029,-5.0047,56.002,
-7.1499,0.0028,-5.0047,63.110,
-7.0498,0.0027,-5.0046,68.301,
-6.9499,0.0026,-5.0046,71.948,
-6.85,0.0026,-5.0045,73.707,
-6.75,0.0025,-5.0045,75.647,
-6.6499,0.0024,-5.0044,76.705,
-6.5498,0.0023,-5.0044,77.686,
-6.4499,0.0023,-5.0043,78.449,
-6.35,0.0022,-5.0043,79.357,
-6.2499,0.0021,-5.0042,79.827,
-6.1498,0.002,-5.0042,80.890,
-6.0499,0.002,-5.0041,81.276,
-5.95,0.0019,-5.0041,81.740,
-5.8499,0.0018,-5.004,82.168,
-5.7499,0.0017,-5.004,82.653,
-5.6498,0.0017,-5.0039,83.426,
-5.5499,0.0016,-5.0039,83.935,
-5.45,0.0015,-5.0038,84.287,
-5.3499,0.0014,-5.0038,84.765,
-5.2499,0.0013,-5.0037,85.430,
-5.1499,0.0013,-5.0037,85.975,
-5.05,0.0012,-5.0036,85.858,
-4.95,0.0011,-5.0036,86.407,
-4.8499,0.001,-5.0035,86.905,
-4.7499,0.001,-5.0035,87.121,
-4.6498,0.0009,-5.0034,88.005,
-4.5499,0.0008,-5.0034,88.180,
-4.4499,0.0007,-5.0033,88.866,
-4.3498,0.0007,-5.0033,89.257,
-4.2499,0.0006,-5.0032,89.240,
-4.15,0.0005,-5.0032,89.840,
-4.0499,0.0004,-5.0031,90.402,
-3.9498,0.0004,-5.003,90.419,
-3.8499,0.0003,-5.003,91.146,
-3.75,0.0002,-5.0029,91.155,
-3.6499,0.0001,-5.0029,91.894,
-3.5499,0.0001,-5.0028,92.076,
-3.4499,0,-5.0028,92.452,
-3.35,-0.0001,-5.0027,92.595,
-3.25,-0.0002,-5.0027,92.982,
-3.1499,-0.0003,-5.0026,93.440,
-3.0499,-0.0003,-5.0026,93.910,
-2.9499,-0.0004,-5.0025,94.335,
-2.85,-0.0005,-5.0025,94.198,
-2.75,-0.0006,-5.0024,94.736,
-2.6499,-0.0006,-5.0024,94.710,
-2.5498,-0.0007,-5.0023,95.320,
-2.4499,-0.0008,-5.0023,95.579,
-2.35,-0.0009,-5.0022,95.730,
-2.25,-0.0009,-5.0022,96.342,
-2.1499,-0.001,-5.0021,96.161,
-2.05,-0.0011,-5.0021,96.931,
-1.9501,-0.0012,-5.002,96.710,
-1.85,-0.0012,-5.002,97.014,
-1.7499,-0.0013,-5.0019,97.378,
-1.6498,-0.0014,-5.0019,97.525,
-1.5499,-0.0015,-5.0018,97.413,
-1.45,-0.0016,-5.0018,97.982,
-1.35,-0.0016,-5.0017,98.252,
-1.2499,-0.0017,-5.0017,98.634,
-1.1498,-0.0018,-5.0016,98.427,
-1.0499,-0.0019,-5.0016,98.722,
-0.95,-0.0019,-5.0015,99.209,
-0.8499,-0.002,-5.0015,99.196,
-0.7499,-0.0021,-5.0014,99.179,
-0.6498,-0.0022,-5.0014,98.786,
-0.5499,-0.0022,-5.0013,98.959,
-0.45,-0.0023,-5.0013,99.096,
-0.3499,-0.0024,-5.0012,99.724,
-0.2498,-0.0025,-5.0012,99.220,
-0.1499,-0.0025,-5.0011,99.549,
-0.05,-0.0026,-5.0011,100.000,
0.0501,-0.0027,-5.001,99.087,
0.15,-0.0027,-5.001,99.199,
0.2501,-0.0027,-5.001,98.752,
0.3501,-0.0027,-5.0009,98.892,
0.45,-0.0026,-5.0009,98.785,
0.55,-0.0026,-5.0009,98.728,
0.6501,-0.0026,-5.0009,98.958,
0.7501,-0.0026,-5.0009,98.553,
0.85,-0.0025,-5.0009,98.746,
0.9501,-0.0025,-5.0009,98.221,
1.0501,-0.0025,-5.0009,98.299,
1.1501,-0.0024,-5.0009,98.425,
1.25,-0.0024,-5.0008,98.218,
1.3501,-0.0024,-5.0008,98.017,
1.4501,-0.0023,-5.0008,97.811,
1.5501,-0.0023,-5.0008,97.550,
1.65,-0.0023,-5.0008,97.156,
1.7501,-0.0022,-5.0008,97.378,
1.8502,-0.0022,-5.0008,97.193,
1.9501,-0.0022,-5.0008,96.870,
2.05,-0.0022,-5.0008,96.854,
2.1501,-0.0021,-5.0007,96.273,
2.2502,-0.0021,-5.0007,96.052,
2.3501,-0.0021,-5.0007,96.416,
2.45,-0.002,-5.0007,95.371,
2.5501,-0.002,-5.0007,94.982,
2.6501,-0.002,-5.0007,94.890,
2.75,-0.0019,-5.0007,94.453,
2.85,-0.0019,-5.0007,94.204,
2.9501,-0.0019,-5.0006,93.794,
3.0501,-0.0018,-5.0006,93.981,
3.15,-0.0018,-5.0006,93.132,
3.2501,-0.0018,-5.0006,93.055,
3.35,-0.0017,-5.0006,92.617,
3.4499,-0.0017,-5.0006,91.877,
3.55,-0.0017,-5.0006,92.073,
3.6501,-0.0017,-5.0006,91.385,
3.7501,-0.0016,-5.0006,91.604,
3.8501,-0.0016,-5.0005,91.048,
3.95,-0.0016,-5.0005,90.535,
4.0501,-0.0015,-5.0005,90.276,
4.1501,-0.0015,-5.0005,89.883,
4.25,-0.0015,-5.0005,89.571,
4.35,-0.0014,-5.0005,88.801,
4.45,-0.0014,-5.0005,88.779,
4.5501,-0.0014,-5.0005,88.216,
4.6501,-0.0013,-5.0004,87.889,
4.7501,-0.0013,-5.0004,87.601,
4.8501,-0.0013,-5.0004,87.370,
4.95,-0.0012,-5.0004,86.544,
5.0501,-0.0012,-5.0004,86.461,
5.1501,-0.0012,-5.0004,85.754,
5.25,-0.0012,-5.0004,85.273,
5.35,-0.0011,-5.0004,84.912,
5.4501,-0.0011,-5.0004,84.318,
5.5502,-0.0011,-5.0003,84.069,
5.6501,-0.001,-5.0003,83.920,
5.75,-0.001,-5.0003,83.377,
5.8501,-0.001,-5.0003,82.973,
5.9501,-0.0009,-5.0003,81.890,
6.05,-0.0009,-5.0003,81.765,
6.1501,-0.0009,-5.0003,80.913,
6.2502,-0.0008,-5.0003,80.216,
6.3501,-0.0008,-5.0003,79.649,
6.45,-0.0008,-5.0002,78.805,
6.5501,-0.0007,-5.0002,77.920,
6.6501,-0.0007,-5.0002,76.690,
6.7501,-0.0007,-5.0002,76.011,
6.85,-0.0007,-5.0002,74.655,
6.9501,-0.0006,-5.0002,72.691,
7.0501,-0.0006,-5.0002,69.907,
7.15,-0.0006,-5.0002,64.984,
7.25,-0.0005,-5.0001,58.488,
7.3501,-0.0005,-5.0001,50.866,
7.4501,-0.0005,-5.0001,42.277,
7.55,-0.0004,-5.0001,33.712,
7.65,-0.0004,-5.0001,25.885,
7.7501,-0.0004,-5.0001,19.522,
7.8502,-0.0003,-5.0001,14.639,
7.9502,-0.0003,-5.0001,11.461,
8.0501,-0.0003,-5.0001,9.621,
8.1502,-0.0002,-5,8.534,
8.2501,-0.0002,-5,7.878,
8.35,-0.0002,-5,7.345,
8.4501,-0.0002,-5,7.001,

Checksum:,C0A569251FC1374344DA66C8979DB5643D899D37F88A73A1060368767048075B