HEADER
Header Length,87
Export file version,2.0


Export settings:
Normalise,Yes
For TPS,No
Smoothing level,None

Units:
length,[cm]
amperage,[pA]

Project:
Project,Micro Diamond SN 124596 Annual  QA
Project run number,3
Project run note,

Irradiation unit:
Name,VCU MRIdian
Manufacturer,ViewRay
Model,MRIdian
Source-isocentre distance,90,[cm]

Thales:
Control unit UID,00-3B-00-43-4B-56-50-11-20-37-30-53
Electrometer UID,00-4E-00-36-58-4B-50-0D-20-34-34-41
Water phantom UID,4A-B3-52-04-00-00-00-0A

Field detector:
Serial number,124596
Manufacturer,PTW
Model,Micro Diamond
Bias voltage,0,[V]

Reference detector:
Serial number,XMC213192
Manufacturer,Standard Imaging
Model,A28MR Ref
Bias voltage,-300,[V]

Zeroing offsets:
Field detector,-0.795,[pA]
Reference detector,-0.89,[pA]

Profile settings:
Measurement mode,Continuous
Creation time,2023-01-29T16:49:06.2454093-05:00
SSD,80,[cm]
Gantry angle,0,[°]
Field size crossline,27.2,[cm]
Field size inline,24.07,[cm]
Beam quality,6,[MV]
Flattening Filter,FFF
Time to wait prior to sampling,0,[s]

Profile:
Profile type,Crossline
Profile status,Completed successfully
Start X,-14.9,[cm]
Start Y,0,[cm]
Start Z,-10,[cm]
Stop X,14.9,[cm]
Stop Y,0,[cm]
Stop Z,-10,[cm]
Couch tilt x,0.03,[°]
Couch tilt y,-0.02,[°]

Region count,1

Region 1 Start,0,[µm]
Region 1 Stop,298000,[µm]
Step size,1000,[µm]
Speed,1050,[µm/s]
Integration time,953,[ms]

Analysis result:
Analysis method,Max value
Calculated centre,0.014353,[cm]
Calculated field width,26.777584,[cm]
Calculated penumbra left,6.629854,[cm]
Calculated penumbra right,6.544683,[cm]
Calculated symmetry,0.674,[%]
Normalisation factor,0.212209,


MEASUREMENT DATA

X [cm],Y [cm],Z [cm],Normalised dose [%],
-14.8506,-0.0022,-10.0007,9.434,
-14.7498,-0.0039,-10.0015,9.798,
-14.6498,-0.0042,-10.0017,10.012,
-14.5498,-0.0041,-10.0018,10.418,
-14.4498,-0.0041,-10.002,10.753,
-14.3499,-0.004,-10.0022,11.167,
-14.25,-0.0039,-10.0024,11.845,
-14.15,-0.0038,-10.0026,12.439,
-14.05,-0.0038,-10.0028,13.416,
-13.95,-0.0037,-10.003,14.846,
-13.85,-0.0036,-10.0031,17.735,
-13.7499,-0.0035,-10.0033,23.036,
-13.6499,-0.0034,-10.0035,30.924,
-13.5499,-0.0034,-10.0037,40.059,
-13.4499,-0.0033,-10.0039,46.977,
-13.3498,-0.0032,-10.0041,50.987,
-13.2498,-0.0031,-10.0043,53.611,
-13.1498,-0.0031,-10.0044,55.178,
-13.0498,-0.003,-10.0046,56.706,
-12.9499,-0.0029,-10.0048,57.554,
-12.85,-0.0028,-10.005,58.342,
-12.75,-0.0027,-10.0052,58.689,
-12.65,-0.0027,-10.0054,59.087,
-12.55,-0.0026,-10.0056,59.599,
-12.45,-0.0025,-10.0057,60.376,
-12.35,-0.0024,-10.0059,60.763,
-12.25,-0.0024,-10.0061,61.022,
-12.15,-0.0023,-10.0063,61.457,
-12.05,-0.0022,-10.0065,61.906,
-11.9499,-0.0021,-10.0067,62.350,
-11.8499,-0.0021,-10.0069,62.752,
-11.7499,-0.002,-10.007,63.322,
-11.6499,-0.0019,-10.0072,63.551,
-11.5498,-0.0018,-10.0074,64.239,
-11.4498,-0.0017,-10.0076,64.444,
-11.3498,-0.0017,-10.0078,64.758,
-11.2498,-0.0016,-10.008,65.318,
-11.1499,-0.0015,-10.0082,65.640,
-11.0499,-0.0014,-10.0083,66.155,
-10.9498,-0.0014,-10.0085,66.273,
-10.8498,-0.0013,-10.0087,66.623,
-10.7499,-0.0012,-10.0089,67.010,
-10.65,-0.0011,-10.0091,67.777,
-10.55,-0.001,-10.0093,67.816,
-10.45,-0.001,-10.0095,68.101,
-10.35,-0.0009,-10.0096,68.539,
-10.25,-0.0008,-10.0098,68.763,
-10.1499,-0.0007,-10.01,69.231,
-10.0499,-0.0007,-10.0102,69.503,
-9.9499,-0.0006,-10.0104,69.880,
-9.8499,-0.0005,-10.0106,70.140,
-9.7498,-0.0004,-10.0108,70.607,
-9.6498,-0.0003,-10.0109,70.967,
-9.5498,-0.0003,-10.0111,71.685,
-9.4498,-0.0002,-10.0113,71.798,
-9.3498,-0.0001,-10.0115,71.906,
-9.2498,0,-10.0117,72.470,
-9.1499,0,-10.0118,72.682,
-9.0499,0,-10.0117,73.147,
-8.9498,0,-10.0116,73.841,
-8.8499,0,-10.0115,74.065,
-8.7499,0,-10.0115,74.252,
-8.6498,0,-10.0114,74.571,
-8.5499,-0.0001,-10.0113,75.051,
-8.4499,-0.0001,-10.0112,75.324,
-8.3498,-0.0001,-10.0112,75.752,
-8.2499,-0.0001,-10.0111,76.139,
-8.1498,-0.0001,-10.011,76.542,
-8.0498,-0.0001,-10.011,77.016,
-7.9497,-0.0001,-10.0109,77.614,
-7.8499,-0.0002,-10.0108,77.836,
-7.7499,-0.0002,-10.0107,77.898,
-7.6498,-0.0002,-10.0107,78.462,
-7.5499,-0.0002,-10.0106,79.046,
-7.4499,-0.0002,-10.0105,79.070,
-7.3498,-0.0002,-10.0104,79.367,
-7.2499,-0.0002,-10.0104,79.639,
-7.1499,-0.0003,-10.0103,80.137,
-7.0499,-0.0003,-10.0102,80.472,
-6.9499,-0.0003,-10.0101,81.011,
-6.8498,-0.0003,-10.0101,81.496,
-6.7499,-0.0003,-10.01,81.949,
-6.6499,-0.0003,-10.0099,82.222,
-6.5498,-0.0003,-10.0098,82.674,
-6.4499,-0.0003,-10.0098,82.455,
-6.3499,-0.0004,-10.0097,83.415,
-6.2498,-0.0004,-10.0096,83.509,
-6.1499,-0.0004,-10.0095,83.977,
-6.0499,-0.0004,-10.0095,84.190,
-5.9499,-0.0004,-10.0094,84.627,
-5.8499,-0.0004,-10.0093,85.212,
-5.7498,-0.0004,-10.0092,85.630,
-5.6498,-0.0005,-10.0092,85.731,
-5.5498,-0.0005,-10.0091,85.953,
-5.4499,-0.0005,-10.009,86.514,
-5.3499,-0.0005,-10.0089,86.692,
-5.2498,-0.0005,-10.0089,87.147,
-5.1499,-0.0005,-10.0088,87.737,
-5.0499,-0.0005,-10.0087,87.760,
-4.9498,-0.0006,-10.0086,88.324,
-4.8499,-0.0006,-10.0086,88.617,
-4.7499,-0.0006,-10.0085,88.838,
-4.6499,-0.0006,-10.0084,89.409,
-4.55,-0.0006,-10.0083,89.797,
-4.4499,-0.0006,-10.0083,89.934,
-4.3498,-0.0006,-10.0082,90.223,
-4.2499,-0.0007,-10.0081,90.900,
-4.1499,-0.0007,-10.008,90.992,
-4.0498,-0.0007,-10.008,91.148,
-3.9498,-0.0007,-10.0079,91.471,
-3.8497,-0.0007,-10.0078,91.782,
-3.7499,-0.0007,-10.0078,92.315,
-3.6499,-0.0007,-10.0077,92.559,
-3.5498,-0.0008,-10.0076,93.002,
-3.4499,-0.0008,-10.0075,93.267,
-3.3499,-0.0008,-10.0075,93.824,
-3.2499,-0.0008,-10.0074,93.768,
-3.1499,-0.0008,-10.0073,94.004,
-3.0498,-0.0008,-10.0072,94.418,
-2.9499,-0.0008,-10.0072,94.898,
-2.8499,-0.0009,-10.0071,94.950,
-2.7498,-0.0009,-10.007,95.360,
-2.6499,-0.0009,-10.0069,95.556,
-2.5499,-0.0009,-10.0069,96.111,
-2.4498,-0.0009,-10.0068,96.132,
-2.3499,-0.0009,-10.0067,96.054,
-2.25,-0.0009,-10.0066,96.710,
-2.1499,-0.001,-10.0066,96.793,
-2.0499,-0.001,-10.0065,97.359,
-1.9498,-0.001,-10.0064,97.371,
-1.8499,-0.001,-10.0063,97.252,
-1.7499,-0.001,-10.0063,97.347,
-1.6499,-0.001,-10.0062,97.794,
-1.5498,-0.001,-10.0061,98.014,
-1.4498,-0.0011,-10.006,98.391,
-1.3499,-0.0011,-10.006,98.516,
-1.2499,-0.0011,-10.0059,98.599,
-1.1498,-0.0011,-10.0058,98.752,
-1.0499,-0.0011,-10.0057,98.946,
-0.95,-0.0011,-10.0057,98.838,
-0.8499,-0.0011,-10.0056,99.383,
-0.7499,-0.0012,-10.0055,99.519,
-0.6498,-0.0012,-10.0054,99.456,
-0.5499,-0.0012,-10.0054,99.456,
-0.4499,-0.0012,-10.0053,99.609,
-0.3498,-0.0012,-10.0052,100.000,
-0.2499,-0.0012,-10.0051,99.904,
-0.1499,-0.0012,-10.0051,99.661,
-0.0498,-0.0013,-10.005,99.472,
0.0501,-0.0013,-10.0049,99.276,
0.15,-0.0013,-10.0048,99.211,
0.2501,-0.0013,-10.0048,99.435,
0.3501,-0.0013,-10.0048,99.509,
0.4501,-0.0013,-10.0048,98.912,
0.5501,-0.0012,-10.0048,98.994,
0.6501,-0.0012,-10.0048,99.135,
0.7501,-0.0012,-10.0048,98.956,
0.85,-0.0012,-10.0048,98.926,
0.9501,-0.0012,-10.0048,98.604,
1.05,-0.0012,-10.0048,98.653,
1.1501,-0.0011,-10.0048,98.532,
1.25,-0.0011,-10.0048,98.708,
1.3501,-0.0011,-10.0048,98.138,
1.45,-0.0011,-10.0048,98.274,
1.5501,-0.0011,-10.0048,97.818,
1.65,-0.0011,-10.0048,97.743,
1.7501,-0.001,-10.0048,97.534,
1.85,-0.001,-10.0048,97.568,
1.9501,-0.001,-10.0048,97.243,
2.05,-0.001,-10.0048,96.840,
2.1501,-0.001,-10.0048,97.257,
2.25,-0.001,-10.0048,96.537,
2.3501,-0.0009,-10.0048,96.217,
2.45,-0.0009,-10.0048,96.317,
2.5501,-0.0009,-10.0048,95.923,
2.65,-0.0009,-10.0048,95.860,
2.7501,-0.0009,-10.0048,95.510,
2.85,-0.0009,-10.0048,95.218,
2.9501,-0.0008,-10.0048,94.959,
3.05,-0.0008,-10.0048,94.623,
3.1501,-0.0008,-10.0048,94.116,
3.25,-0.0008,-10.0048,93.877,
3.3501,-0.0008,-10.0048,93.731,
3.45,-0.0008,-10.0048,93.375,
3.5501,-0.0007,-10.0048,93.194,
3.65,-0.0007,-10.0048,92.604,
3.7501,-0.0007,-10.0049,92.416,
3.85,-0.0007,-10.0049,92.417,
3.9501,-0.0007,-10.0049,91.738,
4.05,-0.0007,-10.0049,91.751,
4.1501,-0.0007,-10.0049,91.113,
4.2502,-0.0006,-10.0049,91.170,
4.3501,-0.0006,-10.0049,90.544,
4.4502,-0.0006,-10.0049,90.246,
4.5501,-0.0006,-10.0049,89.848,
4.6502,-0.0006,-10.0049,89.788,
4.7501,-0.0006,-10.0049,89.365,
4.8502,-0.0005,-10.0049,88.974,
4.9501,-0.0005,-10.0049,88.596,
5.05,-0.0005,-10.0049,88.297,
5.1501,-0.0005,-10.0049,87.776,
5.25,-0.0005,-10.0049,87.421,
5.3501,-0.0005,-10.0049,87.310,
5.45,-0.0004,-10.0049,86.853,
5.5501,-0.0004,-10.0049,86.399,
5.65,-0.0004,-10.0049,86.054,
5.7501,-0.0004,-10.0049,85.876,
5.85,-0.0004,-10.0049,85.383,
5.9501,-0.0004,-10.0049,84.935,
6.05,-0.0003,-10.0049,84.714,
6.1501,-0.0003,-10.0049,84.396,
6.25,-0.0003,-10.0049,84.108,
6.3501,-0.0003,-10.0049,83.637,
6.45,-0.0003,-10.0049,83.151,
6.5501,-0.0003,-10.0049,82.718,
6.65,-0.0002,-10.0049,82.241,
6.7501,-0.0002,-10.0049,82.275,
6.85,-0.0002,-10.0049,81.491,
6.9501,-0.0002,-10.0049,81.402,
7.05,-0.0002,-10.0049,80.971,
7.1501,-0.0002,-10.0049,80.467,
7.25,-0.0001,-10.0049,80.503,
7.3501,-0.0001,-10.0049,79.791,
7.45,-0.0001,-10.0049,79.654,
7.5501,-0.0001,-10.0049,79.135,
7.65,-0.0001,-10.0049,78.653,
7.7501,-0.0001,-10.0049,78.413,
7.85,0,-10.0049,78.319,
7.9501,0,-10.0049,77.725,
8.05,0,-10.0049,77.333,
8.1501,0,-10.0049,77.053,
8.2502,0,-10.0049,76.425,
8.3501,0,-10.0049,76.127,
8.4502,0.0001,-10.0049,75.653,
8.5501,0.0001,-10.0049,75.564,
8.6502,0.0001,-10.0049,74.984,
8.7501,0.0001,-10.0049,74.835,
8.8501,0.0001,-10.0049,74.489,
8.9501,0.0001,-10.0049,74.497,
9.0501,0.0002,-10.0049,73.536,
9.1501,0.0002,-10.0049,73.203,
9.2501,0.0002,-10.0049,72.941,
9.3501,0.0002,-10.0049,72.575,
9.4501,0.0002,-10.0049,71.832,
9.55,0.0002,-10.0049,71.884,
9.6501,0.0002,-10.0049,71.410,
9.7502,0.0002,-10.0048,71.004,
9.8501,0.0002,-10.0047,70.766,
9.9502,0.0002,-10.0046,70.341,
10.0502,0.0001,-10.0045,69.966,
10.1502,0.0001,-10.0044,69.524,
10.2502,0.0001,-10.0043,68.994,
10.3502,0.0001,-10.0043,68.804,
10.4502,0.0001,-10.0042,68.234,
10.5502,0,-10.0041,68.155,
10.6501,0,-10.004,67.922,
10.7502,0,-10.0039,67.056,
10.8501,0,-10.0038,67.091,
10.9502,0,-10.0037,66.190,
11.0501,0,-10.0036,66.093,
11.1501,-0.0001,-10.0035,65.889,
11.2501,-0.0001,-10.0034,65.388,
11.3501,-0.0001,-10.0034,65.044,
11.4501,-0.0001,-10.0033,64.558,
11.5501,-0.0001,-10.0032,64.134,
11.6501,-0.0002,-10.0031,64.121,
11.7501,-0.0002,-10.003,63.353,
11.85,-0.0002,-10.0029,63.158,
11.9501,-0.0002,-10.0028,62.816,
12.05,-0.0002,-10.0027,62.364,
12.1501,-0.0003,-10.0026,61.798,
12.2501,-0.0003,-10.0025,61.514,
12.3501,-0.0003,-10.0025,60.855,
12.4501,-0.0003,-10.0024,60.457,
12.5501,-0.0003,-10.0023,59.989,
12.6501,-0.0004,-10.0022,59.280,
12.7501,-0.0004,-10.0021,58.921,
12.8501,-0.0004,-10.002,58.457,
12.9501,-0.0004,-10.0019,57.362,
13.05,-0.0004,-10.0018,56.652,
13.1501,-0.0005,-10.0017,55.258,
13.25,-0.0005,-10.0016,53.755,
13.3501,-0.0005,-10.0016,51.744,
13.45,-0.0005,-10.0015,48.459,
13.5502,-0.0005,-10.0014,43.039,
13.6502,-0.0006,-10.0013,35.674,
13.7501,-0.0006,-10.0012,27.404,
13.8502,-0.0006,-10.0011,20.626,
13.9501,-0.0006,-10.001,16.499,
14.0502,-0.0006,-10.0009,14.015,
14.1502,-0.0007,-10.0008,12.557,
14.2503,-0.0007,-10.0007,11.691,
14.3501,-0.0007,-10.0007,11.064,
14.4501,-0.0007,-10.0006,10.708,
14.5502,-0.0007,-10.0005,10.290,
14.6501,-0.0008,-10.0004,10.007,
14.7501,-0.0008,-10.0003,9.709,
14.8501,-0.0008,-10.0002,9.503,

Checksum:,131DC1491AB979F7B6FE5BBDC28247C17971F80842011CFC6F2067DC88293006