HEADER
Header Length,87
Export file version,2.0


Export settings:
Normalise,Yes
For TPS,No
Smoothing level,None

Units:
length,[cm]
amperage,[pA]

Project:
Project,Micro Diamond SN 124596 Annual  QA
Project run number,3
Project run note,

Irradiation unit:
Name,VCU MRIdian
Manufacturer,ViewRay
Model,MRIdian
Source-isocentre distance,90,[cm]

Thales:
Control unit UID,00-3B-00-43-4B-56-50-11-20-37-30-53
Electrometer UID,00-4E-00-36-58-4B-50-0D-20-34-34-41
Water phantom UID,4A-B3-52-04-00-00-00-0A

Field detector:
Serial number,124596
Manufacturer,PTW
Model,Micro Diamond
Bias voltage,0,[V]

Reference detector:
Serial number,XMC213192
Manufacturer,Standard Imaging
Model,A28MR Ref
Bias voltage,-300,[V]

Zeroing offsets:
Field detector,-0.795,[pA]
Reference detector,-0.89,[pA]

Profile settings:
Measurement mode,Continuous
Creation time,2023-01-29T16:29:18.1126791-05:00
SSD,80,[cm]
Gantry angle,0,[°]
Field size crossline,24.07,[cm]
Field size inline,24.07,[cm]
Beam quality,6,[MV]
Flattening Filter,FFF
Time to wait prior to sampling,0,[s]

Profile:
Profile type,Crossline
Profile status,Completed successfully
Start X,-13.5,[cm]
Start Y,0,[cm]
Start Z,-10,[cm]
Stop X,13.5,[cm]
Stop Y,0,[cm]
Stop Z,-10,[cm]
Couch tilt x,0.03,[°]
Couch tilt y,-0.02,[°]

Region count,1

Region 1 Start,0,[µm]
Region 1 Stop,270000,[µm]
Step size,1000,[µm]
Speed,1050,[µm/s]
Integration time,953,[ms]

Analysis result:
Analysis method,Double inflection point
Calculated centre,0.016748,[cm]
Calculated field width,24.122342,[cm]
Calculated penumbra left,0.847063,[cm]
Calculated penumbra right,0.813368,[cm]
Calculated symmetry,1.374,[%]
Normalisation factor,0.291708,


MEASUREMENT DATA

X [cm],Y [cm],Z [cm],Normalised dose [%],
-13.4509,-0.0021,-10.0014,12.564,
-13.3498,-0.0032,-10.0028,12.943,
-13.2498,-0.0031,-10.003,13.455,
-13.1498,-0.0031,-10.0031,13.770,
-13.0498,-0.003,-10.0033,14.220,
-12.9499,-0.0029,-10.0035,14.719,
-12.85,-0.0028,-10.0037,15.295,
-12.75,-0.0027,-10.0039,16.195,
-12.65,-0.0027,-10.0041,16.871,
-12.55,-0.0026,-10.0043,17.838,
-12.45,-0.0025,-10.0045,19.541,
-12.35,-0.0024,-10.0046,21.888,
-12.25,-0.0024,-10.0048,26.759,
-12.15,-0.0023,-10.005,35.749,
-12.05,-0.0022,-10.0052,48.583,
-11.9499,-0.0021,-10.0054,61.043,
-11.8499,-0.0021,-10.0056,69.586,
-11.7499,-0.002,-10.0058,74.867,
-11.6499,-0.0019,-10.0059,78.312,
-11.5498,-0.0018,-10.0061,80.852,
-11.4498,-0.0017,-10.0063,82.528,
-11.3498,-0.0017,-10.0065,84.003,
-11.2498,-0.0016,-10.0067,85.252,
-11.1498,-0.0015,-10.0069,85.791,
-11.0498,-0.0014,-10.0071,86.781,
-10.9498,-0.0014,-10.0072,87.597,
-10.8498,-0.0013,-10.0074,88.119,
-10.7499,-0.0012,-10.0076,88.623,
-10.65,-0.0011,-10.0078,89.430,
-10.55,-0.001,-10.008,89.913,
-10.45,-0.001,-10.0082,90.907,
-10.35,-0.0009,-10.0084,91.169,
-10.25,-0.0008,-10.0085,91.770,
-10.1499,-0.0007,-10.0087,92.363,
-10.0499,-0.0007,-10.0089,92.955,
-9.9499,-0.0006,-10.0091,93.652,
-9.8499,-0.0005,-10.0093,93.504,
-9.7498,-0.0004,-10.0095,94.606,
-9.65,-0.0003,-10.0097,95.209,
-9.5499,-0.0003,-10.0098,95.904,
-9.4498,-0.0002,-10.01,96.241,
-9.3498,-0.0001,-10.0102,96.786,
-9.2498,0,-10.0104,97.651,
-9.1499,0,-10.0105,98.103,
-9.0499,0,-10.0104,98.644,
-8.9498,0,-10.0103,99.002,
-8.8499,0,-10.0103,99.569,
-8.7499,0,-10.0102,100.483,
-8.6498,0,-10.0101,101.162,
-8.5499,-0.0001,-10.01,101.203,
-8.4499,-0.0001,-10.01,101.910,
-8.3498,-0.0001,-10.0099,102.222,
-8.2499,-0.0001,-10.0098,103.130,
-8.1498,-0.0001,-10.0097,103.228,
-8.0498,-0.0001,-10.0097,104.393,
-7.9497,-0.0001,-10.0096,104.598,
-7.8499,-0.0002,-10.0095,105.020,
-7.7499,-0.0002,-10.0095,105.841,
-7.6498,-0.0002,-10.0094,106.113,
-7.5499,-0.0002,-10.0093,106.815,
-7.4499,-0.0002,-10.0092,106.772,
-7.3498,-0.0002,-10.0092,107.767,
-7.2499,-0.0002,-10.0091,108.263,
-7.1499,-0.0003,-10.009,109.025,
-7.0499,-0.0003,-10.0089,109.263,
-6.9499,-0.0003,-10.0089,109.764,
-6.8498,-0.0003,-10.0088,110.467,
-6.7499,-0.0003,-10.0087,111.136,
-6.6499,-0.0003,-10.0086,111.560,
-6.5498,-0.0003,-10.0086,112.079,
-6.4499,-0.0003,-10.0085,112.472,
-6.3499,-0.0004,-10.0084,113.120,
-6.2498,-0.0004,-10.0083,113.855,
-6.1499,-0.0004,-10.0083,113.746,
-6.0499,-0.0004,-10.0082,114.783,
-5.9499,-0.0004,-10.0081,115.222,
-5.8499,-0.0004,-10.0081,115.112,
-5.7499,-0.0004,-10.008,115.881,
-5.6498,-0.0005,-10.0079,116.294,
-5.5498,-0.0005,-10.0078,117.205,
-5.4499,-0.0005,-10.0078,117.447,
-5.3499,-0.0005,-10.0077,118.151,
-5.2498,-0.0005,-10.0076,117.910,
-5.1499,-0.0005,-10.0075,118.779,
-5.0499,-0.0005,-10.0075,119.615,
-4.9498,-0.0006,-10.0074,120.583,
-4.8499,-0.0006,-10.0073,120.284,
-4.75,-0.0006,-10.0072,121.188,
-4.6499,-0.0006,-10.0072,121.634,
-4.55,-0.0006,-10.0071,122.003,
-4.4499,-0.0006,-10.007,122.317,
-4.3498,-0.0006,-10.0069,123.110,
-4.2499,-0.0007,-10.0069,123.379,
-4.1499,-0.0007,-10.0068,124.473,
-4.0498,-0.0007,-10.0067,124.682,
-3.9498,-0.0007,-10.0067,125.036,
-3.8497,-0.0007,-10.0066,125.295,
-3.7499,-0.0007,-10.0065,126.013,
-3.6499,-0.0007,-10.0064,126.425,
-3.5498,-0.0008,-10.0064,126.925,
-3.4499,-0.0008,-10.0063,127.402,
-3.35,-0.0008,-10.0062,127.633,
-3.2499,-0.0008,-10.0061,128.200,
-3.1499,-0.0008,-10.0061,128.749,
-3.0498,-0.0008,-10.006,128.364,
-2.9499,-0.0008,-10.0059,129.818,
-2.8499,-0.0009,-10.0058,129.356,
-2.7498,-0.0009,-10.0058,130.373,
-2.6499,-0.0009,-10.0057,130.548,
-2.5499,-0.0009,-10.0056,130.790,
-2.4498,-0.0009,-10.0055,131.128,
-2.3499,-0.0009,-10.0055,131.469,
-2.25,-0.0009,-10.0054,131.847,
-2.1499,-0.001,-10.0053,132.281,
-2.0499,-0.001,-10.0053,132.750,
-1.9498,-0.001,-10.0052,132.853,
-1.8499,-0.001,-10.0051,132.865,
-1.7499,-0.001,-10.005,133.717,
-1.6499,-0.001,-10.005,133.881,
-1.5498,-0.001,-10.0049,133.968,
-1.4498,-0.0011,-10.0048,134.269,
-1.3499,-0.0011,-10.0047,134.070,
-1.2499,-0.0011,-10.0047,134.836,
-1.1498,-0.0011,-10.0046,135.133,
-1.0499,-0.0011,-10.0045,135.392,
-0.95,-0.0011,-10.0044,135.125,
-0.8499,-0.0011,-10.0044,135.134,
-0.7499,-0.0012,-10.0043,136.154,
-0.6498,-0.0012,-10.0042,135.855,
-0.5499,-0.0012,-10.0042,136.003,
-0.4499,-0.0012,-10.0041,136.402,
-0.3498,-0.0012,-10.004,136.297,
-0.2499,-0.0012,-10.0039,136.112,
-0.1499,-0.0012,-10.0039,136.037,
-0.0498,-0.0013,-10.0038,135.987,
0.0501,-0.0013,-10.0037,135.718,
0.15,-0.0013,-10.0036,135.457,
0.2501,-0.0013,-10.0036,135.582,
0.3501,-0.0013,-10.0036,135.961,
0.45,-0.0013,-10.0036,135.824,
0.5501,-0.0012,-10.0036,135.690,
0.65,-0.0012,-10.0036,135.571,
0.7501,-0.0012,-10.0036,135.559,
0.85,-0.0012,-10.0036,135.000,
0.9501,-0.0012,-10.0036,135.258,
1.05,-0.0012,-10.0036,134.656,
1.1501,-0.0011,-10.0036,135.271,
1.25,-0.0011,-10.0036,134.920,
1.3501,-0.0011,-10.0036,134.490,
1.45,-0.0011,-10.0036,134.090,
1.5501,-0.0011,-10.0036,134.234,
1.65,-0.0011,-10.0036,134.137,
1.7501,-0.001,-10.0036,133.709,
1.85,-0.001,-10.0036,133.233,
1.9501,-0.001,-10.0036,133.177,
2.05,-0.001,-10.0036,133.087,
2.1501,-0.001,-10.0036,131.739,
2.25,-0.001,-10.0036,132.198,
2.3501,-0.0009,-10.0036,131.670,
2.45,-0.0009,-10.0036,131.115,
2.5501,-0.0009,-10.0036,131.726,
2.65,-0.0009,-10.0036,131.097,
2.7501,-0.0009,-10.0036,130.221,
2.85,-0.0009,-10.0036,130.123,
2.9501,-0.0008,-10.0036,129.563,
3.05,-0.0008,-10.0036,129.397,
3.1501,-0.0008,-10.0036,128.744,
3.25,-0.0008,-10.0036,128.267,
3.3501,-0.0008,-10.0036,128.147,
3.45,-0.0008,-10.0036,127.217,
3.5501,-0.0007,-10.0036,127.241,
3.65,-0.0007,-10.0036,126.917,
3.7502,-0.0007,-10.0036,126.345,
3.8502,-0.0007,-10.0036,126.112,
3.9502,-0.0007,-10.0036,125.454,
4.0502,-0.0007,-10.0036,124.896,
4.1501,-0.0007,-10.0036,124.459,
4.2502,-0.0006,-10.0036,124.245,
4.3501,-0.0006,-10.0036,123.758,
4.4502,-0.0006,-10.0036,123.650,
4.5501,-0.0006,-10.0036,122.612,
4.6501,-0.0006,-10.0036,122.243,
4.7501,-0.0006,-10.0036,121.835,
4.8502,-0.0005,-10.0036,121.309,
4.9501,-0.0005,-10.0036,121.081,
5.05,-0.0005,-10.0036,120.036,
5.1501,-0.0005,-10.0036,120.111,
5.25,-0.0005,-10.0036,119.552,
5.3501,-0.0005,-10.0036,118.489,
5.45,-0.0004,-10.0036,118.392,
5.5501,-0.0004,-10.0036,117.708,
5.65,-0.0004,-10.0036,117.444,
5.7501,-0.0004,-10.0036,116.801,
5.85,-0.0004,-10.0036,116.103,
5.9501,-0.0004,-10.0036,115.572,
6.05,-0.0003,-10.0036,115.299,
6.1501,-0.0003,-10.0036,114.558,
6.25,-0.0003,-10.0036,113.894,
6.3501,-0.0003,-10.0036,113.479,
6.45,-0.0003,-10.0036,113.356,
6.5501,-0.0003,-10.0036,112.837,
6.65,-0.0002,-10.0036,112.589,
6.7501,-0.0002,-10.0036,111.648,
6.85,-0.0002,-10.0036,110.946,
6.9501,-0.0002,-10.0036,110.477,
7.05,-0.0002,-10.0036,110.143,
7.1501,-0.0002,-10.0036,109.523,
7.25,-0.0001,-10.0036,109.008,
7.3501,-0.0001,-10.0036,108.551,
7.45,-0.0001,-10.0036,108.361,
7.5501,-0.0001,-10.0036,107.718,
7.65,-0.0001,-10.0036,107.396,
7.7501,-0.0001,-10.0036,106.583,
7.8502,0,-10.0036,105.591,
7.9501,0,-10.0036,105.021,
8.0502,0,-10.0036,104.751,
8.1501,0,-10.0036,103.782,
8.2502,0,-10.0036,103.657,
8.3501,0,-10.0036,102.900,
8.4502,0.0001,-10.0036,102.309,
8.5501,0.0001,-10.0036,101.884,
8.6501,0.0001,-10.0036,100.918,
8.7501,0.0001,-10.0036,100.372,
8.8501,0.0001,-10.0036,100.152,
8.9501,0.0001,-10.0036,99.857,
9.0501,0.0002,-10.0036,99.135,
9.1501,0.0002,-10.0036,98.667,
9.2501,0.0002,-10.0036,98.262,
9.3501,0.0002,-10.0036,97.366,
9.4501,0.0002,-10.0036,96.775,
9.55,0.0002,-10.0036,96.447,
9.6501,0.0002,-10.0036,95.903,
9.7502,0.0002,-10.0035,95.295,
9.8501,0.0002,-10.0034,94.923,
9.9501,0.0002,-10.0033,94.384,
10.0501,0.0001,-10.0032,93.913,
10.1502,0.0001,-10.0031,93.065,
10.2502,0.0001,-10.0031,92.098,
10.3502,0.0001,-10.003,91.916,
10.4502,0.0001,-10.0029,90.982,
10.5502,0,-10.0028,90.832,
10.6501,0,-10.0027,89.697,
10.7502,0,-10.0026,89.374,
10.8501,0,-10.0025,88.436,
10.9502,0,-10.0024,88.219,
11.0501,0,-10.0023,87.276,
11.1501,-0.0001,-10.0022,86.503,
11.2501,-0.0001,-10.0022,85.877,
11.3501,-0.0001,-10.0021,84.548,
11.4501,-0.0001,-10.002,83.421,
11.5501,-0.0001,-10.0019,81.990,
11.6501,-0.0002,-10.0018,80.011,
11.7501,-0.0002,-10.0017,77.256,
11.85,-0.0002,-10.0016,72.230,
11.9501,-0.0002,-10.0015,64.843,
12.05,-0.0002,-10.0014,54.171,
12.1501,-0.0003,-10.0013,41.808,
12.2501,-0.0003,-10.0013,30.987,
12.3501,-0.0003,-10.0012,24.081,
12.4501,-0.0003,-10.0011,20.324,
12.5501,-0.0003,-10.001,17.972,
12.6501,-0.0004,-10.0009,16.743,
12.7501,-0.0004,-10.0008,15.840,
12.8501,-0.0004,-10.0007,15.262,
12.9501,-0.0004,-10.0006,14.792,
13.05,-0.0004,-10.0005,14.359,
13.1501,-0.0005,-10.0004,13.948,
13.25,-0.0005,-10.0004,13.558,
13.3501,-0.0005,-10.0003,13.076,
13.45,-0.0005,-10.0002,12.811,

Checksum:,B4015681F3A71DE5B6DA771A4925255EC0AEDD90972751FFAA43F336BDD9E6B9