HEADER
Header Length,87
Export file version,2.0


Export settings:
Normalise,Yes
For TPS,No
Smoothing level,None

Units:
length,[cm]
amperage,[pA]

Project:
Project,Micro Silicon SN 152329
Project run number,1
Project run note,

Irradiation unit:
Name,VCU MRIdian
Manufacturer,ViewRay
Model,MRIdian
Source-isocentre distance,90,[cm]

Thales:
Control unit UID,00-3B-00-43-4B-56-50-11-20-37-30-53
Electrometer UID,00-4E-00-36-58-4B-50-0D-20-34-34-41
Water phantom UID,4A-B3-52-04-00-00-00-0A

Field detector:
Serial number,152329
Manufacturer,PTW
Model,Micro Silicon
Bias voltage,0,[V]

Reference detector:
Serial number,XMC213192
Manufacturer,Standard Imaging
Model,A28MR Ref
Bias voltage,-300,[V]

Zeroing offsets:
Field detector,-0.857,[pA]
Reference detector,-0.89,[pA]

Profile settings:
Measurement mode,Continuous
Creation time,2023-01-22T17:41:12.7477806-05:00
SSD,85,[cm]
Gantry angle,0,[°]
Field size crossline,14.94,[cm]
Field size inline,14.94,[cm]
Beam quality,6,[MV]
Flattening Filter,FFF
Time to wait prior to sampling,0,[s]

Profile:
Profile type,Crossline
Profile status,Completed successfully
Start X,-8.5,[cm]
Start Y,0,[cm]
Start Z,-5,[cm]
Stop X,8.5,[cm]
Stop Y,0,[cm]
Stop Z,-5,[cm]
Couch tilt x,0.06,[°]
Couch tilt y,0.03,[°]

Region count,1

Region 1 Start,0,[µm]
Region 1 Stop,170000,[µm]
Step size,1000,[µm]
Speed,1050,[µm/s]
Integration time,953,[ms]

Analysis result:
Analysis method,Max value
Calculated centre,0.006452,[cm]
Calculated field width,14.727269,[cm]
Calculated penumbra left,1.327739,[cm]
Calculated penumbra right,1.312211,[cm]
Calculated symmetry,0.888,[%]
Normalisation factor,0.010524,


MEASUREMENT DATA

X [cm],Y [cm],Z [cm],Normalised dose [%],
-8.4517,-0.0009,-5.0028,-7.500,
-8.3497,-0.0012,-5.0055,-7.905,
-8.2499,-0.0012,-5.0054,-8.405,
-8.1499,-0.0013,-5.0054,-8.921,
-8.0498,-0.0013,-5.0053,-9.618,
-7.9499,-0.0013,-5.0052,-10.580,
-7.85,-0.0013,-5.0052,-11.846,
-7.7499,-0.0013,-5.0051,-13.680,
-7.6499,-0.0013,-5.005,-17.334,
-7.5498,-0.0013,-5.005,-24.795,
-7.4499,-0.0014,-5.0049,-36.929,
-7.35,-0.0014,-5.0048,-51.013,
-7.2499,-0.0014,-5.0048,-60.793,
-7.1499,-0.0014,-5.0047,-66.747,
-7.0498,-0.0014,-5.0046,-70.822,
-6.9499,-0.0014,-5.0046,-73.087,
-6.8499,-0.0014,-5.0045,-74.633,
-6.7499,-0.0015,-5.0044,-76.179,
-6.6499,-0.0015,-5.0044,-77.055,
-6.5498,-0.0015,-5.0043,-78.332,
-6.4499,-0.0015,-5.0042,-78.669,
-6.3499,-0.0015,-5.0042,-79.498,
-6.2498,-0.0015,-5.0041,-80.289,
-6.1498,-0.0016,-5.004,-80.560,
-6.0498,-0.0016,-5.004,-81.284,
-5.9498,-0.0016,-5.0039,-81.740,
-5.8498,-0.0016,-5.0038,-82.356,
-5.7499,-0.0016,-5.0038,-82.846,
-5.6499,-0.0016,-5.0037,-83.542,
-5.5498,-0.0016,-5.0036,-83.980,
-5.4499,-0.0017,-5.0036,-84.345,
-5.35,-0.0017,-5.0035,-84.811,
-5.2499,-0.0017,-5.0035,-85.144,
-5.1499,-0.0017,-5.0034,-85.588,
-5.0498,-0.0017,-5.0033,-86.183,
-4.9499,-0.0017,-5.0033,-86.763,
-4.8499,-0.0017,-5.0032,-87.106,
-4.7499,-0.0018,-5.0031,-87.738,
-4.65,-0.0018,-5.0031,-88.124,
-4.5499,-0.0018,-5.003,-88.412,
-4.4498,-0.0018,-5.0029,-89.218,
-4.3499,-0.0018,-5.0029,-89.340,
-4.25,-0.0018,-5.0028,-89.710,
-4.1499,-0.0018,-5.0027,-90.149,
-4.0499,-0.0019,-5.0027,-90.545,
-3.9498,-0.0019,-5.0026,-90.732,
-3.8498,-0.0019,-5.0025,-91.386,
-3.7498,-0.0019,-5.0025,-91.671,
-3.6499,-0.0019,-5.0024,-91.847,
-3.5499,-0.0019,-5.0023,-92.245,
-3.4498,-0.0019,-5.0023,-92.612,
-3.3499,-0.002,-5.0022,-92.867,
-3.2498,-0.002,-5.0021,-93.343,
-3.1499,-0.002,-5.0021,-93.343,
-3.0499,-0.002,-5.002,-94.078,
-2.9498,-0.002,-5.0019,-94.566,
-2.85,-0.002,-5.0019,-94.667,
-2.75,-0.002,-5.0018,-94.836,
-2.6499,-0.0021,-5.0017,-95.260,
-2.5499,-0.0021,-5.0017,-95.577,
-2.4498,-0.0021,-5.0016,-95.842,
-2.3499,-0.0021,-5.0015,-96.199,
-2.25,-0.0021,-5.0015,-96.576,
-2.1499,-0.0021,-5.0014,-96.344,
-2.05,-0.0021,-5.0014,-96.895,
-1.95,-0.0022,-5.0013,-97.392,
-1.8499,-0.0022,-5.0012,-97.278,
-1.7499,-0.0022,-5.0012,-97.494,
-1.6499,-0.0022,-5.0011,-97.802,
-1.5499,-0.0022,-5.001,-98.132,
-1.4499,-0.0022,-5.001,-98.097,
-1.3499,-0.0022,-5.0009,-98.365,
-1.2498,-0.0023,-5.0008,-98.700,
-1.1499,-0.0023,-5.0008,-98.665,
-1.0499,-0.0023,-5.0007,-99.041,
-0.9499,-0.0023,-5.0006,-99.447,
-0.8499,-0.0023,-5.0006,-99.188,
-0.7498,-0.0023,-5.0005,-99.725,
-0.6499,-0.0024,-5.0004,-99.632,
-0.5499,-0.0024,-5.0004,-99.572,
-0.4498,-0.0024,-5.0003,-99.887,
-0.3499,-0.0024,-5.0002,-100.000,
-0.25,-0.0024,-5.0002,-99.873,
-0.1499,-0.0024,-5.0001,-99.740,
-0.0499,-0.0024,-5,-99.323,
0.0502,-0.0025,-5,-99.642,
0.1502,-0.0024,-5,-99.341,
0.2501,-0.0024,-5,-99.462,
0.3502,-0.0024,-5,-99.352,
0.4501,-0.0024,-5,-99.164,
0.5502,-0.0024,-5,-98.845,
0.6501,-0.0023,-5,-99.056,
0.7502,-0.0023,-5,-98.904,
0.8501,-0.0023,-5,-98.917,
0.9501,-0.0023,-5,-98.896,
1.0501,-0.0023,-5,-98.153,
1.1501,-0.0023,-5,-98.157,
1.2501,-0.0022,-5,-98.156,
1.3501,-0.0022,-5,-98.129,
1.4501,-0.0022,-5,-97.655,
1.5501,-0.0022,-5,-98.034,
1.6501,-0.0022,-5,-97.659,
1.7501,-0.0021,-5,-97.546,
1.8501,-0.0021,-5,-97.236,
1.9501,-0.0021,-5,-97.043,
2.0501,-0.0021,-5,-96.463,
2.1501,-0.0021,-5,-96.537,
2.2501,-0.0021,-5,-96.414,
2.3501,-0.002,-5,-95.839,
2.4501,-0.002,-5,-95.865,
2.5501,-0.002,-5,-95.425,
2.65,-0.002,-5,-95.233,
2.7501,-0.002,-5,-94.829,
2.85,-0.0019,-5,-94.766,
2.9501,-0.0019,-5,-93.999,
3.0502,-0.0019,-5,-93.954,
3.1501,-0.0019,-5,-93.494,
3.2502,-0.0019,-5,-93.426,
3.35,-0.0019,-5,-92.710,
3.45,-0.0018,-5,-92.605,
3.5501,-0.0018,-5,-92.216,
3.6502,-0.0018,-5,-91.824,
3.7501,-0.0018,-5,-91.669,
3.8502,-0.0018,-5,-91.255,
3.9501,-0.0017,-5,-90.790,
4.0502,-0.0017,-5,-90.216,
4.1501,-0.0017,-5,-90.169,
4.2502,-0.0017,-5,-89.641,
4.3501,-0.0017,-5,-89.319,
4.4501,-0.0016,-5,-88.844,
4.5501,-0.0016,-5,-88.707,
4.6502,-0.0016,-5,-88.375,
4.7502,-0.0016,-5,-87.855,
4.8502,-0.0016,-5,-87.339,
4.9501,-0.0016,-5,-87.091,
5.0502,-0.0015,-5,-86.176,
5.1501,-0.0015,-5,-86.301,
5.2502,-0.0015,-5,-85.629,
5.3501,-0.0015,-5,-85.109,
5.4502,-0.0015,-5.0001,-84.660,
5.5501,-0.0014,-5.0001,-84.181,
5.6502,-0.0014,-5.0001,-83.832,
5.7501,-0.0014,-5.0001,-83.349,
5.8502,-0.0014,-5.0001,-82.929,
5.9501,-0.0014,-5.0001,-82.053,
6.0502,-0.0014,-5.0001,-81.885,
6.1501,-0.0013,-5.0001,-81.097,
6.2501,-0.0013,-5.0001,-80.495,
6.3501,-0.0013,-5.0001,-79.861,
6.4501,-0.0013,-5.0001,-79.178,
6.55,-0.0013,-5.0001,-78.504,
6.6501,-0.0012,-5.0001,-77.632,
6.75,-0.0012,-5.0001,-76.416,
6.8501,-0.0012,-5.0001,-75.502,
6.95,-0.0012,-5.0001,-73.864,
7.0501,-0.0012,-5.0001,-71.580,
7.15,-0.0012,-5.0001,-67.665,
7.2501,-0.0011,-5.0001,-61.677,
7.35,-0.0011,-5.0001,-52.418,
7.4501,-0.0011,-5.0001,-40.369,
7.55,-0.0011,-5.0001,-27.821,
7.6501,-0.0011,-5.0001,-19.155,
7.75,-0.001,-5.0001,-14.348,
7.8501,-0.001,-5.0001,-11.659,
7.95,-0.001,-5.0001,-10.271,
8.0501,-0.001,-5.0001,-9.492,
8.15,-0.001,-5.0001,-8.964,
8.2502,-0.001,-5.0001,-8.503,
8.3502,-0.0009,-5.0001,-8.160,
8.4501,-0.0009,-5.0001,-7.855,

Checksum:,6F212943F07C66482709D8E34951A8B4FE396C7BBD6DDC676B87DF66AECFAFB3