HEADER
Header Length,87
Export file version,2.0


Export settings:
Normalise,Yes
For TPS,No
Smoothing level,None

Units:
length,[cm]
amperage,[pA]

Project:
Project,W2MR 1X1 SN XMG212160
Project run number,2
Project run note,

Irradiation unit:
Name,VCU MRIdian
Manufacturer,ViewRay
Model,MRIdian
Source-isocentre distance,90,[cm]

Thales:
Control unit UID,00-3B-00-43-4B-56-50-11-20-37-30-53
Electrometer UID,00-4E-00-36-58-4B-50-0D-20-34-34-41
Water phantom UID,4A-B3-52-04-00-00-00-0A

Field detector:
Serial number,XMG212160
Manufacturer,Standard Imaging
Model,W2MR 1X1
Bias voltage,0,[V]

Reference detector:
Serial number,XMC213192
Manufacturer,Standard Imaging
Model,A28MR Ref
Bias voltage,-300,[V]

Zeroing offsets:
Field detector,-0.875,[pA]
Reference detector,-0.876,[pA]

Profile settings:
Measurement mode,Continuous
Creation time,2022-12-25T17:25:13.3729716-05:00
SSD,85,[cm]
Gantry angle,0,[°]
Field size crossline,14.94,[cm]
Field size inline,14.94,[cm]
Beam quality,6,[MV]
Flattening Filter,FFF
Time to wait prior to sampling,0,[s]

Profile:
Profile type,Crossline
Profile status,Completed successfully
Start X,-8.5,[cm]
Start Y,0,[cm]
Start Z,-5,[cm]
Stop X,8.5,[cm]
Stop Y,0,[cm]
Stop Z,-5,[cm]
Couch tilt x,0.03,[°]
Couch tilt y,-0.02,[°]

Region count,1

Region 1 Start,0,[µm]
Region 1 Stop,170000,[µm]
Step size,1000,[µm]
Speed,1050,[µm/s]
Integration time,953,[ms]

Analysis result:
Analysis method,Max value
Calculated centre,-3.663646,[cm]
Calculated field width,7.327292,[cm]
Calculated penumbra left,1.393402,[cm]
Calculated penumbra right,6.353915,[cm]
Calculated symmetry,17.962,[%]
Normalisation factor,0.062790,


MEASUREMENT DATA

X [cm],Y [cm],Z [cm],Normalised dose [%],
-8.4519,0.0015,-5.0027,5.501,
-8.35,0.0029,-5.0054,5.965,
-8.2499,0.0034,-5.0053,6.449,
-8.1499,0.0037,-5.0053,7.139,
-8.0498,0.0036,-5.0052,7.769,
-7.9498,0.0035,-5.0052,8.723,
-7.8499,0.0035,-5.0051,10.105,
-7.75,0.0034,-5.0051,11.995,
-7.6499,0.0033,-5.005,15.364,
-7.5498,0.0032,-5.005,21.583,
-7.4499,0.0031,-5.0049,32.912,
-7.35,0.0031,-5.0048,47.668,
-7.25,0.003,-5.0048,57.937,
-7.1499,0.0029,-5.0047,65.288,
-7.0499,0.0028,-5.0047,69.856,
-6.9498,0.0028,-5.0046,72.550,
-6.8499,0.0027,-5.0046,74.420,
-6.75,0.0026,-5.0045,75.218,
-6.65,0.0025,-5.0045,77.148,
-6.5499,0.0024,-5.0044,77.395,
-6.4498,0.0024,-5.0044,78.154,
-6.3498,0.0023,-5.0043,79.761,
-6.2499,0.0022,-5.0043,79.036,
-6.15,0.0021,-5.0042,80.452,
-6.0499,0.002,-5.0042,81.532,
-5.9499,0.002,-5.0041,81.335,
-5.8499,0.0019,-5.0041,82.064,
-5.75,0.0018,-5.004,82.159,
-5.65,0.0017,-5.004,83.096,
-5.55,0.0016,-5.0039,83.236,
-5.4499,0.0016,-5.0039,83.726,
-5.3499,0.0015,-5.0038,85.038,
-5.25,0.0014,-5.0038,84.497,
-5.15,0.0013,-5.0037,85.660,
-5.05,0.0013,-5.0036,85.507,
-4.9499,0.0012,-5.0036,86.153,
-4.8498,0.0011,-5.0035,87.053,
-4.7498,0.001,-5.0035,86.788,
-4.6499,0.0009,-5.0034,87.743,
-4.5498,0.0009,-5.0034,87.844,
-4.4498,0.0008,-5.0033,87.661,
-4.3499,0.0007,-5.0033,89.447,
-4.25,0.0006,-5.0032,88.891,
-4.1499,0.0005,-5.0032,89.790,
-4.0499,0.0005,-5.0031,89.635,
-3.9498,0.0004,-5.0031,90.317,
-3.8498,0.0003,-5.003,90.691,
-3.7499,0.0002,-5.003,90.857,
-3.65,0.0001,-5.0029,91.798,
-3.5499,0.0001,-5.0029,91.828,
-3.4499,0,-5.0028,92.260,
-3.3498,-0.0001,-5.0028,92.248,
-3.2499,-0.0002,-5.0027,92.704,
-3.15,-0.0003,-5.0027,93.609,
-3.0499,-0.0003,-5.0026,93.287,
-2.9498,-0.0004,-5.0026,93.909,
-2.85,-0.0005,-5.0025,94.589,
-2.7501,-0.0006,-5.0025,94.145,
-2.65,-0.0004,-5.0024,95.141,
-2.55,-0.0001,-5.0023,94.891,
-2.4499,-0.0006,-5.0023,95.138,
-2.3498,-0.0009,-5.0022,96.078,
-2.2498,-0.001,-5.0022,95.382,
-2.1499,-0.001,-5.0021,96.526,
-2.05,-0.0011,-5.0021,96.813,
-1.9499,-0.0012,-5.002,96.260,
-1.8499,-0.0013,-5.002,98.091,
-1.7499,-0.0014,-5.0019,96.472,
-1.65,-0.0014,-5.0019,98.447,
-1.55,-0.0015,-5.0018,97.282,
-1.45,-0.0016,-5.0018,97.438,
-1.3499,-0.0017,-5.0017,99.446,
-1.2498,-0.0018,-5.0017,97.977,
-1.1499,-0.0018,-5.0016,98.580,
-1.05,-0.0019,-5.0016,98.329,
-0.95,-0.002,-5.0015,99.084,
-0.8499,-0.0021,-5.0015,99.482,
-0.7498,-0.0022,-5.0014,98.604,
-0.6498,-0.0022,-5.0014,100.000,
-0.5499,-0.0023,-5.0013,99.343,
-0.45,-0.0024,-5.0013,99.372,
-0.3499,-0.0025,-5.0012,99.961,
-0.2499,-0.0025,-5.0012,98.647,
-0.1499,-0.0026,-5.0011,99.909,
-0.0499,-0.0027,-5.001,99.170,
0.0501,-0.0028,-5.001,99.273,
0.15,-0.0027,-5.001,99.661,
0.2501,-0.0027,-5.001,98.833,
0.3501,-0.0027,-5.001,98.989,
0.4501,-0.0026,-5.001,99.274,
0.55,-0.0026,-5.0009,98.778,
0.6501,-0.0026,-5.0009,99.116,
0.7502,-0.0025,-5.0009,98.422,
0.8501,-0.0025,-5.0009,98.902,
0.95,-0.0025,-5.0009,98.438,
1.0501,-0.0024,-5.0009,98.141,
1.1502,-0.0024,-5.0009,98.571,
1.2501,-0.0024,-5.0009,98.034,
1.35,-0.0023,-5.0009,98.499,
1.4501,-0.0023,-5.0008,97.545,
1.5502,-0.0023,-5.0008,97.673,
1.6501,-0.0022,-5.0008,98.479,
1.75,-0.0022,-5.0008,96.903,
1.8501,-0.0021,-5.0008,97.306,
1.9501,-0.0021,-5.0008,96.921,
2.05,-0.0021,-5.0008,96.076,
2.15,-0.002,-5.0008,97.247,
2.2501,-0.002,-5.0007,96.033,
2.3501,-0.002,-5.0007,96.567,
2.45,-0.0019,-5.0007,95.223,
2.55,-0.0019,-5.0007,95.012,
2.6501,-0.0019,-5.0007,96.244,
2.7502,-0.0018,-5.0007,94.086,
2.8501,-0.0018,-5.0007,95.293,
2.95,-0.0018,-5.0007,94.257,
3.0501,-0.0017,-5.0007,93.449,
3.1501,-0.0017,-5.0006,94.022,
3.25,-0.0017,-5.0006,92.758,
3.3501,-0.0016,-5.0006,92.501,
3.4502,-0.0016,-5.0006,93.352,
3.5501,-0.0016,-5.0006,91.906,
3.65,-0.0015,-5.0006,92.424,
3.7501,-0.0015,-5.0006,91.161,
3.8501,-0.0015,-5.0006,91.695,
3.9501,-0.0014,-5.0005,90.546,
4.05,-0.0014,-5.0005,90.462,
4.1501,-0.0014,-5.0005,90.297,
4.2501,-0.0013,-5.0005,88.981,
4.3501,-0.0013,-5.0005,89.254,
4.45,-0.0013,-5.0005,89.284,
4.55,-0.0012,-5.0005,87.942,
4.6501,-0.0012,-5.0005,88.620,
4.75,-0.0012,-5.0005,87.581,
4.85,-0.0011,-5.0004,87.848,
4.9501,-0.0011,-5.0004,86.812,
5.0501,-0.0011,-5.0004,86.296,
5.15,-0.001,-5.0004,85.952,
5.2501,-0.001,-5.0004,86.178,
5.3502,-0.001,-5.0004,85.181,
5.4501,-0.0009,-5.0004,84.880,
5.55,-0.0009,-5.0004,83.919,
5.6501,-0.0009,-5.0003,84.495,
5.7502,-0.0008,-5.0003,82.982,
5.8501,-0.0008,-5.0003,82.992,
5.95,-0.0008,-5.0003,82.611,
6.0501,-0.0007,-5.0003,81.402,
6.1502,-0.0007,-5.0003,81.444,
6.2501,-0.0007,-5.0003,80.510,
6.35,-0.0006,-5.0003,80.027,
6.4501,-0.0006,-5.0003,79.336,
6.5502,-0.0006,-5.0002,77.947,
6.6501,-0.0005,-5.0002,78.176,
6.75,-0.0005,-5.0002,76.278,
6.8501,-0.0005,-5.0002,74.853,
6.9501,-0.0004,-5.0002,73.973,
7.05,-0.0004,-5.0002,71.035,
7.15,-0.0004,-5.0002,68.745,
7.2501,-0.0003,-5.0002,62.161,
7.3501,-0.0003,-5.0001,53.939,
7.45,-0.0003,-5.0001,42.407,
7.5501,-0.0002,-5.0001,29.062,
7.6501,-0.0002,-5.0001,19.215,
7.7501,-0.0002,-5.0001,13.221,
7.85,-0.0001,-5.0001,10.388,
7.9501,-0.0001,-5.0001,8.715,
8.0501,-0.0001,-5.0001,7.782,
8.1501,0,-5.0001,7.083,
8.25,0,-5,6.582,
8.3501,0,-5,6.324,
8.4502,0.0001,-5,5.895,

Checksum:,5A52415DAF7F4465783C53A569A03D7D17FBD299FB1DFDD568E5F0BFBB93FA84