HEADER
Header Length,87
Export file version,2.0


Export settings:
Normalise,Yes
For TPS,No
Smoothing level,None

Units:
length,[cm]
amperage,[pA]

Project:
Project,W2MR 1X1 SN XMG212160
Project run number,2
Project run note,

Irradiation unit:
Name,VCU MRIdian
Manufacturer,ViewRay
Model,MRIdian
Source-isocentre distance,90,[cm]

Thales:
Control unit UID,00-3B-00-43-4B-56-50-11-20-37-30-53
Electrometer UID,00-4E-00-36-58-4B-50-0D-20-34-34-41
Water phantom UID,4A-B3-52-04-00-00-00-0A

Field detector:
Serial number,XMG212160
Manufacturer,Standard Imaging
Model,W2MR 1X1
Bias voltage,0,[V]

Reference detector:
Serial number,XMC213192
Manufacturer,Standard Imaging
Model,A28MR Ref
Bias voltage,-300,[V]

Zeroing offsets:
Field detector,-0.875,[pA]
Reference detector,-0.876,[pA]

Profile settings:
Measurement mode,Continuous
Creation time,2022-12-25T17:39:57.3012000-05:00
SSD,85,[cm]
Gantry angle,0,[°]
Field size crossline,19.92,[cm]
Field size inline,19.92,[cm]
Beam quality,6,[MV]
Flattening Filter,FFF
Time to wait prior to sampling,0,[s]

Profile:
Profile type,Crossline
Profile status,Completed successfully
Start X,-11,[cm]
Start Y,0,[cm]
Start Z,-5,[cm]
Stop X,11,[cm]
Stop Y,0,[cm]
Stop Z,-5,[cm]
Couch tilt x,0.03,[°]
Couch tilt y,-0.02,[°]

Region count,1

Region 1 Start,0,[µm]
Region 1 Stop,220000,[µm]
Step size,1000,[µm]
Speed,1050,[µm/s]
Integration time,953,[ms]

Analysis result:
Analysis method,Max value
Calculated centre,0.041831,[cm]
Calculated field width,19.637757,[cm]
Calculated penumbra left,3.257965,[cm]
Calculated penumbra right,3.069019,[cm]
Calculated symmetry,1.546,[%]
Normalisation factor,0.061641,


MEASUREMENT DATA

X [cm],Y [cm],Z [cm],Normalised dose [%],
-10.9506,0.0013,-5.003,5.910,
-10.8499,0.0026,-5.0061,6.224,
-10.7499,0.0034,-5.0063,6.711,
-10.65,0.0038,-5.0064,7.243,
-10.55,0.004,-5.0066,7.852,
-10.4499,0.0041,-5.0067,8.892,
-10.35,0.0043,-5.0069,9.994,
-10.25,0.0044,-5.0071,11.854,
-10.1499,0.0046,-5.0072,15.036,
-10.0499,0.0048,-5.0074,21.091,
-9.9498,0.0049,-5.0075,31.407,
-9.8499,0.0051,-5.0077,43.133,
-9.7499,0.0052,-5.0079,52.559,
-9.6498,0.0054,-5.008,58.336,
-9.5499,0.0056,-5.0082,62.400,
-9.4499,0.0057,-5.0084,64.697,
-9.3498,0.0058,-5.0085,66.745,
-9.2499,0.0058,-5.0084,68.022,
-9.1498,0.0057,-5.0084,68.437,
-9.0499,0.0056,-5.0083,69.477,
-8.95,0.0055,-5.0083,69.897,
-8.85,0.0055,-5.0082,70.577,
-8.7499,0.0054,-5.0082,71.618,
-8.6498,0.0053,-5.0081,71.426,
-8.5498,0.0052,-5.0081,72.486,
-8.4499,0.0051,-5.008,72.481,
-8.35,0.0051,-5.008,73.409,
-8.2499,0.005,-5.0079,73.791,
-8.15,0.0049,-5.0079,73.615,
-8.0501,0.0048,-5.0078,75.312,
-7.9501,0.0047,-5.0077,74.823,
-7.8501,0.0047,-5.0077,75.468,
-7.75,0.0046,-5.0076,76.343,
-7.6499,0.0045,-5.0076,76.397,
-7.5498,0.0044,-5.0075,76.852,
-7.4499,0.0043,-5.0075,77.156,
-7.35,0.0043,-5.0074,77.224,
-7.25,0.0042,-5.0074,78.568,
-7.1499,0.0041,-5.0073,77.963,
-7.0499,0.004,-5.0073,79.072,
-6.9499,0.004,-5.0072,79.437,
-6.85,0.0039,-5.0072,79.762,
-6.75,0.0038,-5.0071,80.356,
-6.65,0.0037,-5.0071,80.489,
-6.5499,0.0036,-5.007,81.154,
-6.4498,0.0036,-5.007,81.402,
-6.3499,0.0035,-5.0069,81.201,
-6.25,0.0034,-5.0069,82.726,
-6.1499,0.0033,-5.0068,82.432,
-6.0499,0.0032,-5.0067,82.747,
-5.9499,0.0032,-5.0067,83.628,
-5.8499,0.0031,-5.0066,83.735,
-5.75,0.003,-5.0066,84.548,
-5.65,0.0029,-5.0065,84.191,
-5.55,0.0028,-5.0065,85.192,
-5.45,0.0028,-5.0064,84.580,
-5.3501,0.0027,-5.0064,85.224,
-5.25,0.0026,-5.0063,86.740,
-5.15,0.0025,-5.0063,86.486,
-5.05,0.0025,-5.0062,87.355,
-4.9499,0.0024,-5.0062,86.361,
-4.85,0.0023,-5.0061,87.215,
-4.75,0.0022,-5.0061,88.490,
-4.6499,0.0021,-5.006,87.672,
-4.5498,0.0021,-5.006,89.124,
-4.4498,0.002,-5.0059,88.416,
-4.3499,0.0019,-5.0059,89.149,
-4.25,0.0018,-5.0058,90.382,
-4.1499,0.0017,-5.0057,89.941,
-4.0499,0.0017,-5.0057,90.761,
-3.9498,0.0016,-5.0056,90.363,
-3.8498,0.0015,-5.0056,90.779,
-3.7499,0.0014,-5.0055,92.217,
-3.65,0.0013,-5.0055,91.207,
-3.5499,0.0013,-5.0054,92.507,
-3.4499,0.0012,-5.0054,92.523,
-3.3499,0.0011,-5.0053,93.076,
-3.25,0.001,-5.0053,93.524,
-3.15,0.0009,-5.0052,93.032,
-3.0499,0.0009,-5.0052,94.668,
-2.9498,0.0008,-5.0051,93.672,
-2.8498,0.0007,-5.0051,94.501,
-2.7499,0.0006,-5.005,95.076,
-2.65,0.0006,-5.005,94.127,
-2.55,0.0005,-5.0049,96.116,
-2.4499,0.0004,-5.0049,95.031,
-2.3498,0.0003,-5.0048,95.340,
-2.2498,0.0002,-5.0047,96.619,
-2.1499,0.0002,-5.0047,96.007,
-2.05,0.0001,-5.0046,96.848,
-1.9499,0,-5.0046,96.610,
-1.8499,-0.0001,-5.0045,96.387,
-1.7499,-0.0002,-5.0045,97.554,
-1.65,-0.0002,-5.0044,97.310,
-1.55,-0.0003,-5.0044,97.990,
-1.45,-0.0004,-5.0043,97.389,
-1.3499,-0.0005,-5.0043,97.921,
-1.2498,-0.0006,-5.0042,98.961,
-1.1499,-0.0006,-5.0042,97.904,
-1.05,-0.0007,-5.0041,98.940,
-0.95,-0.0008,-5.0041,98.721,
-0.8499,-0.0009,-5.004,98.680,
-0.7498,-0.0009,-5.004,99.266,
-0.6498,-0.001,-5.0039,99.223,
-0.5499,-0.0011,-5.0038,99.572,
-0.45,-0.0012,-5.0038,98.918,
-0.3499,-0.0013,-5.0037,99.153,
-0.2499,-0.0013,-5.0037,100.000,
-0.1499,-0.0014,-5.0036,98.865,
-0.0499,-0.0015,-5.0036,99.472,
0.0501,-0.0016,-5.0035,99.381,
0.15,-0.0015,-5.0035,98.681,
0.2501,-0.0015,-5.0035,99.753,
0.3501,-0.0015,-5.0035,99.013,
0.4501,-0.0014,-5.0035,99.440,
0.55,-0.0014,-5.0035,98.334,
0.6501,-0.0014,-5.0035,98.895,
0.7502,-0.0013,-5.0035,99.193,
0.8501,-0.0013,-5.0035,97.970,
0.95,-0.0013,-5.0034,99.517,
1.0501,-0.0012,-5.0034,97.860,
1.1502,-0.0012,-5.0034,97.771,
1.2501,-0.0012,-5.0034,99.042,
1.35,-0.0011,-5.0034,97.649,
1.4501,-0.0011,-5.0034,98.482,
1.5502,-0.001,-5.0034,97.224,
1.6501,-0.001,-5.0034,97.192,
1.75,-0.001,-5.0034,97.826,
1.85,-0.0009,-5.0033,96.914,
1.9499,-0.0009,-5.0033,97.341,
2.05,-0.0009,-5.0033,96.843,
2.15,-0.0008,-5.0033,96.036,
2.2501,-0.0008,-5.0033,96.653,
2.3501,-0.0008,-5.0033,95.660,
2.45,-0.0007,-5.0033,96.110,
2.55,-0.0007,-5.0033,94.987,
2.6501,-0.0007,-5.0033,95.487,
2.7501,-0.0006,-5.0032,95.277,
2.85,-0.0006,-5.0032,94.301,
2.9501,-0.0006,-5.0032,94.342,
3.0501,-0.0005,-5.0032,94.625,
3.1501,-0.0005,-5.0032,93.508,
3.25,-0.0005,-5.0032,93.983,
3.3501,-0.0004,-5.0032,92.817,
3.4502,-0.0004,-5.0032,92.426,
3.5501,-0.0004,-5.0032,92.807,
3.65,-0.0003,-5.0031,92.008,
3.7501,-0.0003,-5.0031,92.632,
3.8501,-0.0003,-5.0031,90.995,
3.9501,-0.0002,-5.0031,91.654,
4.05,-0.0002,-5.0031,90.751,
4.1501,-0.0002,-5.0031,89.955,
4.2501,-0.0001,-5.0031,90.580,
4.3501,-0.0001,-5.0031,89.464,
4.45,-0.0001,-5.0031,89.492,
4.55,0,-5.003,89.093,
4.6501,0,-5.003,88.575,
4.75,0,-5.003,89.278,
4.8501,0.0001,-5.003,87.847,
4.9501,0.0001,-5.003,87.777,
5.05,0.0001,-5.003,87.606,
5.15,0.0002,-5.003,86.973,
5.2501,0.0002,-5.003,86.913,
5.3502,0.0002,-5.003,85.962,
5.4501,0.0003,-5.0029,85.844,
5.55,0.0003,-5.0029,86.181,
5.6501,0.0003,-5.0029,84.892,
5.7502,0.0004,-5.0029,85.233,
5.8501,0.0004,-5.0029,84.273,
5.95,0.0004,-5.0029,84.180,
6.0501,0.0005,-5.0029,84.235,
6.1502,0.0005,-5.0029,83.009,
6.2501,0.0005,-5.0029,83.273,
6.35,0.0006,-5.0028,82.370,
6.4501,0.0006,-5.0028,82.039,
6.5501,0.0006,-5.0028,82.439,
6.65,0.0007,-5.0028,81.152,
6.7501,0.0007,-5.0028,81.208,
6.8501,0.0007,-5.0028,80.465,
6.9501,0.0008,-5.0028,79.955,
7.05,0.0008,-5.0028,80.176,
7.15,0.0008,-5.0028,79.269,
7.2501,0.0009,-5.0027,79.273,
7.3501,0.0009,-5.0027,78.426,
7.45,0.0009,-5.0027,77.725,
7.5501,0.001,-5.0027,77.950,
7.6501,0.001,-5.0027,76.992,
7.7501,0.001,-5.0027,77.555,
7.85,0.0011,-5.0027,76.101,
7.9501,0.0011,-5.0027,75.811,
8.0501,0.0011,-5.0027,75.986,
8.1501,0.0012,-5.0026,74.994,
8.25,0.0012,-5.0026,74.843,
8.3501,0.0012,-5.0026,74.048,
8.4502,0.0013,-5.0026,73.930,
8.5501,0.0013,-5.0026,73.737,
8.65,0.0014,-5.0026,72.260,
8.7501,0.0014,-5.0026,72.688,
8.8502,0.0014,-5.0026,72.044,
8.9501,0.0015,-5.0026,71.109,
9.05,0.0015,-5.0025,70.914,
9.1501,0.0015,-5.0025,69.815,
9.2501,0.0016,-5.0025,69.461,
9.3501,0.0016,-5.0025,67.636,
9.4502,0.0015,-5.0024,66.551,
9.5501,0.0015,-5.0022,65.514,
9.6501,0.0014,-5.0021,62.349,
9.7501,0.0013,-5.0019,58.460,
9.8501,0.0012,-5.0018,51.055,
9.9501,0.0011,-5.0016,41.113,
10.0501,0.001,-5.0015,29.100,
10.15,0.0009,-5.0013,18.804,
10.25,0.0008,-5.0012,13.440,
10.35,0.0007,-5.001,10.332,
10.4501,0.0006,-5.0009,8.849,
10.5502,0.0005,-5.0007,7.804,
10.6502,0.0005,-5.0006,7.325,
10.7502,0.0004,-5.0004,6.916,
10.8502,0.0003,-5.0003,6.396,
10.9502,0.0002,-5.0001,6.188,

Checksum:,47E64C7E46E2EF640FE69C3619C7FE9446710E5D6C8D57EA5040F508E9A89FC5